"Time (s)","Acceleration x (m/s^2)","Acceleration y (m/s^2)","Acceleration z (m/s^2)","Absolute acceleration (m/s^2)"
-1.443583285E-3,4.956941986E0,-1.745160919E1,-4.725373535E0,1.874724226E1
8.529416751E-3,4.453239441E0,-1.548649567E1,-5.260211334E0,1.695089121E1
1.850341668E-2,4.104464722E0,-1.420875275E1,-5.244943085E0,1.569218637E1
2.847641672E-2,4.111500092E0,-1.284688477E1,-4.313280487E0,1.416161254E1
3.845041664E-2,4.104315033E0,-1.107801315E1,-2.375110931E0,1.205026677E1
4.842341668E-2,4.023183746E0,-9.288334808E0,-1.434467010E0,1.022334909E1
5.839741672E-2,3.449127502E0,-7.466024323E0,-1.628313904E0,8.383877735E0
6.837041664E-2,1.918560333E0,-5.797743530E0,-1.788331146E0,6.363397841E0
7.834441669E-2,-2.694396973E-2,-4.152814178E0,-1.010249176E0,4.274013919E0
8.831741672E-2,-1.657802582E0,-2.341730347E0,4.014651489E-1,2.897099357E0
9.829141665E-2,-2.012714539E0,-7.548802185E-1,7.309300232E-1,2.270489519E0
1.082644167E-1,-1.714833984E0,1.755848694E-1,7.782316589E-1,1.891330261E0
1.182384167E-1,-1.436412964E0,5.287005615E-1,1.267863464E0,1.987532201E0
1.282114167E-1,-9.093589783E-1,9.011260986E-1,1.384620667E0,1.885772093E0
1.381854167E-1,-2.014810181E-1,1.172362061E0,1.050814819E-1,1.194181527E0
1.481584167E-1,4.975653076E-1,1.458566895E0,-1.284329224E0,2.006113201E0
1.581324167E-1,9.250762939E-1,1.768123169E0,-1.383872223E0,2.428400301E0
1.681054167E-1,8.301736450E-1,2.014361115E0,-8.640032959E-1,2.343787677E0
1.780794167E-1,4.481680298E-1,2.222428436E0,-1.035995636E0,2.492655150E0
1.880524167E-1,5.194198608E-2,2.383044434E0,-1.294058990E0,2.712229233E0
1.980264167E-1,-2.637515259E-1,2.587369537E0,-9.610015869E-1,2.772646757E0
2.079994167E-1,-4.915777588E-1,2.680625610E0,-6.948550415E-1,2.812512379E0
2.179724167E-1,-5.330415344E-1,2.591261444E0,-7.021897888E-1,2.737122513E0
2.279464167E-1,-6.454577637E-1,2.259700928E0,-8.297245789E-1,2.492249362E0
2.379194167E-1,-5.360353088E-1,1.672921143E0,-9.795629883E-1,2.011353437E0
2.478934167E-1,-4.152365112E-1,1.184935913E0,-1.039737854E0,1.630199155E0
2.578664167E-1,-3.342549133E-1,8.159532166E-1,-1.153800659E0,1.452157691E0
2.678404168E-1,1.116677856E-1,4.385879517E-2,-1.703757019E0,1.707975781E0
2.778134167E-1,6.725514221E-1,-1.094224548E0,-3.287463684E0,3.529457501E0
2.877874167E-1,1.376088409E0,-2.491119690E0,-5.233417053E0,5.957176401E0
2.977604168E-1,3.210972748E0,-4.900509338E0,-4.769082642E0,7.554434923E0
3.077344167E-1,4.293222198E0,-7.545059967E0,5.194198608E-1,8.696521359E0
3.177074167E-1,3.238964539E0,-1.025741959E1,3.846401367E0,1.142367504E1
3.276814166E-1,2.040856018E0,-1.522079819E1,-1.433718567E0,1.542379135E1
3.376544167E-1,-1.266366577E-1,-2.807995743E1,-1.060529617E1,3.001620151E1
3.476284167E-1,-2.224075012E0,-3.674244370E1,-4.640799408E0,3.710108755E1
3.576014166E-1,1.516496429E0,-3.519795547E1,-8.659492493E-1,3.524124997E1
3.675754167E-1,8.004005585E0,-3.128045197E1,-8.710985413E0,3.344266807E1
3.775484167E-1,8.580157471E0,-2.729214569E1,-9.609117737E0,3.017971939E1
3.875224167E-1,8.227790222E0,-2.485072266E1,-5.205574951E0,2.668994116E1
3.974954167E-1,7.141948242E0,-2.271930496E1,-3.661386108E0,2.409522755E1
4.074694167E-1,6.518794098E0,-2.182102295E1,-4.571643219E0,2.322825092E1
4.174424167E-1,6.829398193E0,-2.099593872E1,-3.905079346E0,2.242141314E1
4.274164167E-1,5.911656647E0,-1.986114853E1,-2.404300232E0,2.086129346E1
4.373894167E-1,4.867428131E0,-1.851125565E1,-1.369801483E0,1.918944497E1
4.473634167E-1,4.405189362E0,-1.668535263E1,-1.203197937E0,1.729897023E1
4.573364167E-1,3.638633423E0,-1.467024307E1,-8.617579651E-1,1.513929694E1
4.673104167E-1,2.320025482E0,-1.315389633E1,4.053570557E-1,1.336307679E1
4.772834167E-1,3.311114502E-1,-1.180265625E1,9.119036865E-1,1.184246164E1
4.872574167E-1,-1.183888092E0,-1.004276596E1,-4.905299377E-1,1.012419670E1
4.972304167E-1,-1.714085541E0,-7.896379395E0,-2.813249817E0,8.556007908E0
5.072044167E-1,-1.561702423E0,-6.093977509E0,-3.756887512E0,7.327324212E0
5.171774167E-1,-8.020321655E-1,-4.255201263E0,-3.436104584E0,5.527821279E0
5.271504167E-1,3.029699707E-1,-2.357597351E0,-2.577490082E0,3.506210375E0
5.371244167E-1,9.614506531E-1,-1.002465363E0,-1.883533173E0,2.340303693E0
5.470974167E-1,1.373094635E0,-4.385879517E-2,-1.438658295E0,1.989233561E0
5.570714168E-1,1.425934753E0,7.140151978E-1,-1.059646454E0,1.914669222E0
5.670444167E-1,1.300196228E0,1.067280579E0,-8.578660583E-1,1.888261698E0
5.770184167E-1,1.320254517E0,1.296454010E0,-8.547225952E-1,2.038238382E0
5.869914166E-1,9.797126770E-1,1.601669312E0,-1.586850128E0,2.458307312E0
5.969654167E-1,1.202000427E-1,1.888173523E0,-3.193758545E0,3.712107346E0
6.069384167E-1,-8.563691711E-1,2.256707153E0,-4.538562012E0,5.140490294E0
6.169124166E-1,-1.318607941E0,3.004402313E0,-4.575385437E0,5.630214211E0
6.268854167E-1,-1.166673889E0,3.977977753E0,-3.674409027E0,5.539559248E0
6.368594167E-1,-5.330415344E-1,4.730013885E0,-3.721411285E0,6.042025040E0
6.468324166E-1,1.877096558E-1,3.623963928E0,-4.043242035E0,5.432877287E0
6.568064167E-1,2.844085693E-1,9.586065674E-1,-1.666484528E0,1.943446800E0
6.667794167E-1,-8.416996765E-1,-5.054988098E-1,1.971999207E0,2.202899967E0
6.767534167E-1,-1.268761597E0,-1.965712280E0,3.602259064E0,4.295352270E0
6.867264167E-1,-1.376687164E0,-3.587290192E0,3.225193176E0,5.016551554E0
6.967000416E-1,-1.778451691E0,-4.822970581E0,1.098715210E0,5.256530296E0
7.066730417E-1,-2.142943726E0,-6.959328003E0,-1.055904236E0,7.357947256E0
7.166470417E-1,-2.265688477E0,-1.132395172E1,-2.305355988E0,1.177624274E1
7.266200416E-1,-1.570833435E0,-1.690928696E1,-2.987936554E0,1.724294835E1
7.365940417E-1,1.725910950E-1,-2.128783173E1,-3.354224854E0,2.155115755E1
7.465670417E-1,3.485352173E0,-2.312301544E1,-4.768184509E0,2.386539558E1
7.565410417E-1,8.239016876E0,-2.396860703E1,-9.945617981E0,2.722665677E1
7.665140417E-1,1.351255051E1,-2.538496170E1,-1.660212570E1,3.320566035E1
7.764880417E-1,1.641291916E1,-2.617980881E1,-1.223570572E1,3.323369975E1
7.864610417E-1,1.536330185E1,-2.210752716E1,-2.981350250E0,2.708620036E1
7.964350417E-1,9.461524658E0,-1.942450653E1,-3.906276855E0,2.195656853E1
8.064080417E-1,3.874692535E0,-2.128408951E1,-7.734116821E0,2.297481820E1
8.163820417E-1,1.053209839E0,-2.293740143E1,-9.166039124E0,2.472346878E1
8.263550417E-1,1.197509766E-3,-2.325758560E1,-5.029840393E0,2.379526390E1
8.363280417E-1,4.589456177E-1,-2.249477188E1,-2.582878876E0,2.264722182E1
8.463020417E-1,1.114731903E0,-2.055256073E1,-2.696043549E0,2.075858932E1
8.562750417E-1,1.987267456E0,-1.802506668E1,-3.145109711E0,1.840499867E1
8.662490417E-1,4.080813904E0,-1.607282639E1,-3.971541138E0,1.705174270E1
8.762220417E-1,6.005062408E0,-1.439421707E1,-4.262086945E0,1.616847688E1
8.861960417E-1,6.884333954E0,-1.262040573E1,-4.496649170E0,1.506282007E1
8.961690417E-1,6.537505188E0,-1.077339661E1,-4.250860291E0,1.329943088E1
9.061430417E-1,5.495522003E0,-8.513845367E0,-3.282224579E0,1.065172865E1
9.161160417E-1,4.490661621E0,-6.085295563E0,-2.202968903E0,7.877178167E0
9.260900416E-1,3.655398560E0,-3.808530121E0,-1.211430817E0,5.416124531E0
9.360630417E-1,2.682870941E0,-1.369053040E0,-2.888992310E-2,3.012131694E0
9.460370417E-1,1.859732666E0,6.424639893E-1,1.153201904E0,2.280622766E0
9.560100416E-1,1.059197388E0,1.756447449E0,1.764380951E0,2.705558517E0
9.659840417E-1,1.460961914E-1,2.309996338E0,1.636995850E0,2.834992520E0
9.759570417E-1,-6.282435608E-1,2.448757782E0,1.328188019E0,2.855728989E0
9.859310417E-1,-5.703140259E-1,2.592309265E0,4.417314148E-1,2.690808811E0
9.959040417E-1,-7.229965210E-2,2.684068451E0,-9.038204956E-1,2.833079981E0
1.005878042E0,-2.841091919E-1,2.779569855E0,-2.128124542E0,3.512213074E0
1.015851042E0,-7.458988953E-1,3.012036438E0,-3.697161713E0,4.826772565E0
1.025825042E0,-1.638492737E0,3.547922058E0,-3.812122650E0,5.459367040E0
1.035798042E0,-2.436483307E0,4.464017029E0,-2.540966034E0,5.685103985E0
1.045772042E0,-2.907553711E0,4.932991791E0,-1.565893707E0,5.936354074E0
1.055745042E0,-2.902314606E0,3.316353607E0,-9.345066833E-1,4.504989907E0
1.065719042E0,-1.119521942E0,8.396040344E-1,1.416803741E0,1.991380716E0
1.075692042E0,-2.288740540E-1,-8.861572266E-2,3.120860138E0,3.130495820E0
1.085666042E0,2.897973633E-1,-3.980223083E-1,3.072211304E0,3.111412310E0
1.095639042E0,6.730004883E-1,-6.569837952E-1,2.450254669E0,2.624558117E0
1.105613042E0,9.954299927E-1,-7.764353943E-1,1.633702698E0,2.064634906E0
1.115586042E0,3.260220337E-1,-4.534071350E-1,-1.167572021E-2,5.585738259E-1
1.125559042E0,-3.023712158E-2,-7.000941467E-1,-2.380948792E0,2.481927325E0
1.135533042E0,-1.826202393E-2,-2.353855133E0,-2.611170044E0,3.515562044E0
1.145506042E0,-4.064048767E-1,-4.838687897E0,1.377136230E-1,4.857677483E0
1.155480042E0,-1.376088409E0,-7.118896179E0,4.014052734E0,8.287636664E0
1.165453042E0,-6.840774536E-2,-1.150163223E1,2.875220947E0,1.185576312E1
1.175427042E0,5.759273529E0,-3.094694550E1,-6.755302277E0,3.219498060E1
1.185400042E0,7.640411682E0,-5.599555664E1,-1.577464645E1,5.867467703E1
1.195374042E0,6.754703522E0,-5.503814758E1,-1.216205887E1,5.676917636E1
1.205347042E0,1.470961121E1,-3.879168228E1,-7.499105530E0,4.215926778E1
1.215321042E0,2.062141754E1,-2.618130569E1,-6.496490479E0,3.395449923E1
1.225294042E0,1.243389359E1,-2.188299408E1,-4.701573029E0,2.560413889E1
1.235268042E0,5.156327362E0,-2.132076324E1,-1.191073151E0,2.196773344E1
1.245241042E0,1.247505798E0,-2.286405396E1,-4.082011414E-1,2.290169998E1
1.255215042E0,-2.419867859E0,-2.514860321E1,-1.831441498E0,2.533105173E1
1.265188042E0,-3.556903381E0,-2.463681747E1,-3.623814240E0,2.515464901E1
1.275162042E0,-3.008294220E0,-2.134755753E1,-4.349954224E0,2.199295679E1
1.285135042E0,-1.801952820E0,-1.706421478E1,-3.064128113E0,1.743052900E1
1.295109042E0,-8.283773804E-1,-1.347557739E1,-1.995799713E0,1.364773284E1
1.305082042E0,-2.451901245E-1,-1.065888474E1,-1.590742035E0,1.077972181E1
1.315056042E0,6.526428223E-1,-8.192763062E0,-1.567540283E0,8.366868696E0
1.325029042E0,1.584604797E0,-6.499484253E0,-1.538051605E0,6.864391499E0
1.335003042E0,2.056273956E0,-5.411846008E0,-1.074765015E0,5.888247586E0
1.344976042E0,2.234104156E0,-4.186194763E0,-1.194665680E0,4.893125184E0
1.354950042E0,2.451751556E0,-2.799478455E0,-2.004331970E0,4.226761403E0
1.364923042E0,2.446063385E0,-1.468446350E0,-2.759212189E0,3.968981314E0
1.374897042E0,2.126028900E0,-2.427951050E-1,-2.904410248E0,3.607568050E0
1.384870042E0,1.436113586E0,5.659730530E-1,-2.321821747E0,2.788118354E0
1.394844042E0,7.728428650E-1,1.033001862E0,-1.692979431E0,2.128510816E0
1.404817042E0,5.502557373E-1,1.314716034E0,-1.552571411E0,2.107543028E0
1.414791042E0,3.342549133E-1,1.515747986E0,-2.604284363E0,3.031751201E0
1.424764042E0,-8.123606873E-1,1.626667328E0,-4.784650269E0,5.118481677E0
1.434737042E0,-2.402204590E0,1.373543701E0,-4.969964905E0,5.688388203E0
1.444711042E0,-2.810256042E0,3.576063538E-1,-2.916385345E0,4.065799406E0
1.454684042E0,-2.189197540E0,-5.191204834E-1,-1.194515991E0,2.547339867E0
1.464658042E0,-1.798809357E0,-6.963519287E-1,-2.912942505E-1,1.950762274E0
1.474631042E0,-1.993853760E0,-6.355783081E-1,1.893562317E-1,2.101254003E0
1.484605042E0,-1.922601929E0,-5.225633240E-1,2.906954956E-1,2.013448404E0
1.494578042E0,-1.318458252E0,-3.899391174E-1,1.041833496E-1,1.378854179E0
1.504552042E0,-9.460327148E-1,-3.385958862E-1,-3.543132019E-1,1.065440246E0
1.514525042E0,-6.914122009E-1,-2.951861572E-1,-8.312214661E-1,1.120765285E0
1.524499042E0,-3.089575195E-1,-2.043251038E-1,-8.764274597E-1,9.514875664E-1
1.534472042E0,1.990859985E-2,7.649093628E-2,-6.195616150E-1,6.245829092E-1
1.544446042E0,2.718347168E-1,4.212240601E-1,-5.551954651E-1,7.480413267E-1
1.554419042E0,2.637515259E-1,3.321592712E-1,-9.235794067E-1,1.016313716E0
1.564393042E0,1.871109009E-1,-1.020877075E-1,-1.174308014E0,1.193495581E0
1.574366042E0,3.764671326E-1,-6.433621216E-1,-2.826123047E-1,7.971900878E-1
1.584340042E0,9.789642334E-1,-1.544338531E0,1.189276886E0,2.181222589E0
1.594313042E0,2.709066467E0,-3.766916656E0,8.452922058E-1,4.716271953E0
1.604287042E0,5.747448120E0,-5.692362671E0,1.077758789E-1,8.089979500E0
1.614260042E0,8.042325897E0,-7.508086853E0,-3.209326172E-1,1.100696924E1
1.624234042E0,9.591304779E0,-1.317036209E1,-4.652774506E0,1.694402182E1
1.634207042E0,7.231611786E0,-1.997730698E1,-1.122815094E0,2.127556619E1
1.644181042E0,9.720785522E-1,-2.127914978E1,9.926757202E0,2.350080128E1
1.654154042E0,4.595743103E0,-2.284908508E1,5.568270721E0,2.396262053E1
1.664128042E0,1.134760254E1,-2.945829117E1,-1.179562088E1,3.370008418E1
1.674101042E0,8.392148438E0,-2.973326935E1,-7.576045532E0,3.181024878E1
1.684075042E0,6.713988190E0,-3.102313705E1,-4.018094330E0,3.199465193E1
1.694048875E0,8.297096100E0,-3.448139557E1,-1.418585037E1,3.819747105E1
1.704022875E0,6.893315277E0,-3.443723740E1,-1.097742233E1,3.679599049E1
1.713995875E0,7.264243927E0,-3.242991165E1,-7.546706543E0,3.407963012E1
1.723968875E0,6.887776794E0,-2.907149551E1,-7.149432678E0,3.071982598E1
1.733942875E0,4.560266876E0,-2.715772522E1,-5.548511810E0,2.809135199E1
1.743915875E0,2.569107513E0,-2.564961136E1,-4.276307373E0,2.613024456E1
1.753889875E0,1.523980865E0,-2.366878052E1,-3.295546875E0,2.394565343E1
1.763862875E0,2.016606445E0,-2.024165726E1,-2.398462372E0,2.048277354E1
1.773836875E0,3.242108002E0,-1.641696075E1,-2.277064819E0,1.688824706E1
1.783809875E0,3.892655182E0,-1.302755905E1,-2.641407166E0,1.385088773E1
1.793783875E0,3.711382141E0,-1.014335678E1,-3.494483185E0,1.135224458E1
1.803756875E0,2.928510132E0,-7.898624725E0,-3.845054169E0,9.260069422E0
1.813730875E0,1.502575378E0,-6.018983459E0,-3.482208710E0,7.114188088E0
1.823703875E0,1.868115234E-1,-4.795278168E0,-2.617007904E0,5.466106624E0
1.833677875E0,-6.195616150E-1,-3.799249420E0,-1.855990448E0,4.273505972E0
1.843650875E0,-1.163680115E0,-2.660717010E0,-1.698517914E0,3.364302234E0
1.853624875E0,-1.454375610E0,-1.620979156E0,-1.117426300E0,2.447738421E0
1.863597875E0,-1.334325256E0,-4.863386536E-1,-4.640350342E-2,1.420951252E0
1.873571875E0,-9.535171509E-1,3.806584167E-1,2.158511353E-1,1.049136550E0
1.883544875E0,-5.734574890E-1,6.221063232E-1,-2.963836670E-1,8.965004446E-1
1.893518875E0,-3.598516846E-1,6.596781921E-1,-6.125262451E-1,9.694621978E-1
1.903491875E0,-2.930905151E-1,7.447013855E-1,-1.491498413E0,1.692645775E0
1.913465875E0,-2.332150269E-1,9.868977356E-1,-3.537443848E0,3.679927359E0
1.923438875E0,3.067121887E-1,1.298998718E0,-5.370082855E0,5.533467259E0
1.933412875E0,8.255332947E-1,1.429676971E0,-3.738026733E0,4.086358443E0
1.943385875E0,9.750723267E-1,1.295406189E0,9.409432983E-1,1.874624636E0
1.953359875E0,3.327580261E-1,8.313711548E-1,3.446732483E0,3.561161427E0
1.963332875E0,-7.559280396E-1,-1.733395386E-1,2.231559448E0,2.362484152E0
1.973305875E0,-1.041534119E0,-4.894821167E-1,1.110989685E0,1.599588742E0
1.983279875E0,-1.019080811E0,-2.896476746E-1,3.439846802E-1,1.113888205E0
1.993252875E0,-1.255588989E0,-2.520758057E-1,-2.981799316E-1,1.314898168E0
2.003226875E0,-1.575473785E0,-2.619552612E-1,-1.336271210E0,2.082392603E0
2.013199875E0,-1.770069122E0,-3.403921509E-1,-2.558030548E0,3.129302127E0
2.023173875E0,-1.541344757E0,-4.917274475E-1,-2.761307831E0,3.200368804E0
2.033146875E0,-1.173559570E0,-5.041516113E-1,-2.114053802E0,2.469946233E0
2.043120875E0,-1.016087036E0,-3.531156921E-1,-1.760938110E0,2.063498627E0
2.053093875E0,-8.129594421E-1,-2.240840149E-1,-2.114203491E0,2.276175104E0
2.063067875E0,-5.264552307E-1,-1.811233521E-1,-2.176174622E0,2.246262844E0
2.073040875E0,-2.505789185E-1,-1.092727661E-1,-8.776249695E-1,9.192148382E-1
2.083014875E0,4.269122314E-1,-3.704795837E-1,3.143463135E-3,5.652601673E-1
2.092987875E0,2.007475433E0,-1.166524200E0,-7.110214233E-2,2.322884379E0
2.102961875E0,3.302133179E0,-2.375859375E0,1.856140137E-2,4.068062908E0
2.112934875E0,3.841012573E0,-3.799249420E0,1.077160034E0,5.508897120E0
2.122908875E0,4.207749939E0,-4.637356567E0,3.200793915E0,7.032447452E0
2.132881875E0,5.615871735E0,-7.633526001E0,2.993774414E-3,9.476747517E0
2.142855875E0,8.534652100E0,-1.771491165E1,-5.379962311E0,2.038632816E1
2.152828875E0,6.656058655E0,-3.013847672E1,4.271966400E0,3.115895686E1
2.162802875E0,8.385711823E0,-4.109284698E1,3.441643066E0,4.208072175E1
2.172775875E0,1.476080475E1,-4.628465057E1,-7.784861298E0,4.920116158E1
2.182749875E0,9.571096802E0,-4.362558014E1,-1.218840408E1,4.629637492E1
2.192722875E0,9.131011963E-1,-4.012600754E1,-1.046428940E1,4.147808563E1
2.202696875E0,1.615889740E0,-3.587095596E1,-1.177077255E1,3.778740091E1
2.212669875E0,3.115920410E0,-3.115995255E1,-9.766739960E0,3.280306102E1
2.222643875E0,4.984185333E0,-2.764780609E1,-6.185886383E0,2.876644704E1
2.232616875E0,6.497837677E0,-2.531281174E1,-4.296515350E0,2.648434210E1
2.242590875E0,6.382128296E0,-2.294952621E1,-1.979034576E0,2.390248717E1
2.252563875E0,4.919968872E0,-2.006622208E1,-2.112107849E0,2.076825370E1
2.262536875E0,3.694916382E0,-1.622640701E1,-2.271077271E0,1.679602583E1
2.272510875E0,2.890638885E0,-1.269315445E1,-2.082469482E0,1.318365056E1
2.282483875E0,1.784888306E0,-9.769584045E0,-1.911375275E0,1.011355299E1
2.292457875E0,6.303392029E-1,-7.267387390E0,-1.566193085E0,7.460911993E0
2.302430875E0,-5.918692017E-1,-5.203329620E0,-1.370849304E0,5.413333179E0
2.312404875E0,-1.574126587E0,-3.797004089E0,-1.238823853E0,4.292994189E0
2.322377875E0,-1.996847534E0,-2.793490906E0,-1.298100586E0,3.670974890E0
2.332351875E0,-1.901196442E0,-2.228865051E0,-1.544039154E0,3.311562205E0
2.342324875E0,-1.823507996E0,-1.432820435E0,-1.895208893E0,2.994991245E0
2.352298875E0,-1.605112152E0,-3.965254211E-1,-2.335144043E0,2.861208684E0
2.362271875E0,-1.509311371E0,3.998185730E-1,-2.774330750E0,3.183517993E0
2.372245875E0,-1.450633392E0,8.864566040E-1,-2.902464294E0,3.363694625E0
2.382218875E0,-9.806108093E-1,1.166673889E0,-2.481539612E0,2.912175195E0
2.392192875E0,-1.489402771E-1,1.454375610E0,-2.491868134E0,2.889082626E0
2.402165875E0,7.532336426E-1,1.767075348E0,-3.376079407E0,3.884305390E0
2.412139875E0,1.201401672E0,1.892963562E0,-3.651356964E0,4.284750250E0
2.422112875E0,6.318360901E-1,7.432044983E-1,-1.558858337E0,1.838915193E0
2.432086875E0,-9.145980835E-2,-1.186582489E0,1.936972046E-1,1.205761795E0
2.442059875E0,-7.454498291E-1,-2.231559448E0,3.088078308E-1,2.372954971E0
2.452033875E0,-1.041234741E0,-2.181862793E0,6.143225098E-1,2.494411189E0
2.462006875E0,-6.658154297E-1,-1.968855743E0,7.048841858E-1,2.194667364E0
2.471979875E0,1.692979431E-1,-1.110690308E0,-1.865121460E-1,1.138894874E0
2.481953875E0,8.223898315E-1,4.519102478E-1,-3.989503784E0,4.098376307E0
2.491926875E0,4.710704041E-1,1.215322723E0,-5.034031677E0,5.200037651E0
2.501900875E0,-5.664221191E-1,1.068627777E0,-8.780740356E-1,1.494594713E0
2.511873875E0,-1.748364258E0,7.397616577E-1,1.714235229E0,2.557855999E0
2.521847875E0,-2.189496918E0,2.993774414E-2,2.693798218E0,3.471504265E0
2.531820875E0,-1.481319580E0,-6.950047302E-1,3.230731659E0,3.621459143E0
2.541794875E0,-6.554869080E-1,-8.277786255E-1,2.997816010E0,3.178329965E0
2.551767875E0,-1.061293030E-1,-7.505392456E-1,2.560126190E0,2.669984775E0
2.561741875E0,4.716691589E-1,-1.071621552E0,2.636617126E0,2.884890711E0
2.571714875E0,2.217937775E0,-2.113904114E0,-1.271006927E0,3.317121822E0
2.581688875E0,5.326673126E0,-3.736230469E0,-4.695286102E0,8.023626131E0
2.591661875E0,6.886130219E0,-5.533243561E0,-2.387535095E-1,8.837000449E0
2.601635875E0,6.957382050E0,-1.012479538E1,4.477189636E-1,1.229296948E1
2.611608875E0,5.361101532E0,-1.714384918E1,2.236050110E0,1.810118489E1
2.621582875E0,6.944059753E0,-2.162777481E1,4.431384888E0,2.314341766E1
2.631555875E0,9.355245667E0,-2.398627029E1,8.412506104E-2,2.574623975E1
2.641529875E0,5.719755707E0,-2.186607925E1,-1.402283936E0,2.264525177E1
2.651502875E0,1.911524963E0,-1.904489594E1,-2.454895020E-1,1.914215907E1
2.661476875E0,-5.361849976E-1,-1.856170074E1,-1.296004944E0,1.861461409E1
2.671449875E0,-2.656825104E0,-2.235002289E1,-3.980073395E0,2.285657951E1
2.681423875E0,1.206790466E0,-3.254547134E1,-5.951922913E0,3.310724142E1
2.691396875E0,6.225703583E0,-4.318893814E1,-5.721102905E0,4.400880345E1
2.701370417E0,6.390660553E0,-4.439617767E1,-6.270610199E0,4.528997336E1
2.711343417E0,1.073552536E1,-3.774460968E1,-6.283932495E0,3.974160128E1
2.721316417E0,1.214529373E1,-2.950619156E1,-5.444777527E0,3.236926169E1
2.731290417E0,1.105690704E1,-2.346206039E1,-4.414020996E0,2.630982806E1
2.741263417E0,1.170610703E1,-1.945579147E1,-3.902235260E0,2.303884119E1
2.751237417E0,1.020532791E1,-1.688743240E1,-3.171454926E0,1.998479966E1
2.761210417E0,7.040758667E0,-1.489866806E1,-2.994822235E0,1.674847912E1
2.771184417E0,1.516197052E0,-1.303309753E1,-3.010689240E0,1.346197365E1
2.781157417E0,-3.629652100E0,-1.229737747E1,-2.891387329E0,1.314381937E1
2.791131417E0,-5.853128357E0,-1.086066513E1,-1.083896027E0,1.238499048E1
2.801104417E0,-6.218069458E0,-8.690777435E0,7.888595581E-1,1.071523680E1
2.811078417E0,-5.621709595E0,-6.340514832E0,1.136436768E0,8.549692136E0
2.821051417E0,-4.532125397E0,-4.235592041E0,4.775070190E-2,6.203441035E0
2.831025417E0,-3.148402863E0,-2.256707153E0,-1.390458527E0,4.115646082E0
2.840998417E0,-2.430795135E0,-3.932322693E-1,-3.431613922E0,4.223667922E0
2.850972417E0,-5.742059326E-1,1.441801758E0,-7.993527374E0,8.142787277E0
2.860945417E0,3.064128113E0,2.161804504E0,-9.382489014E0,1.010412687E1
2.870919417E0,3.540138245E0,2.157313843E0,-3.795956268E0,5.621019996E0
2.880892417E0,2.001936951E0,2.912493439E0,-6.418652344E-1,3.591985602E0
2.890866417E0,-1.679208069E0,2.703977051E0,-3.921844482E-2,3.183201174E0
2.900839417E0,-4.536017303E0,5.737568665E-1,1.805844727E0,4.915864634E0
2.910813417E0,-4.042044525E0,-9.848020935E-1,2.784808960E0,5.006308026E0
2.920786417E0,-3.318299561E0,-1.058149567E0,1.988315277E0,4.010509958E0
2.930759417E0,-2.590213623E0,-1.116677856E0,9.421408081E-1,2.973853620E0
2.940733417E0,-1.677561493E0,-1.157393188E0,2.023791504E-1,2.048103727E0
2.950706417E0,-2.694396973E-1,-6.994953918E-1,3.276686096E-1,8.180820689E-1
2.960680417E0,6.792874146E-1,6.077362061E-2,-9.984237671E-2,6.892701391E-1
2.970653417E0,1.753902740E0,-1.785786438E-1,-1.512454834E0,2.322839809E0
2.980627417E0,2.787203979E0,-6.884184265E-1,-1.141975250E0,3.089746499E0
2.990600417E0,2.949616241E0,-8.129594421E-1,6.294410706E-1,3.123673332E0
3.000574417E0,2.548300781E0,-8.482859802E-1,1.182241516E0,2.934471158E0
3.010547417E0,1.753603363E0,-7.602690125E-1,8.104147339E-1,2.076031254E0
3.020521417E0,7.014413452E-1,-6.514453125E-1,2.896476746E-1,1.000148355E0
3.030494417E0,1.815724182E-1,-7.713459778E-1,2.875520325E-1,8.429883344E-1
3.040468417E0,1.984872437E-1,-1.043929138E0,4.354444885E-1,1.148388930E0
3.050441417E0,5.722599792E-1,-1.376687164E0,2.707868958E-1,1.515280362E0
3.060415417E0,1.258433075E0,-1.397493896E0,4.393363953E-1,1.931232628E0
3.070388417E0,2.098935242E0,-1.518292694E0,-1.236428833E-1,2.593458968E0
3.080362417E0,3.289259949E0,-2.606978760E0,-2.119592285E-1,4.202439289E0
3.090335417E0,4.243824921E0,-4.626878357E0,1.506766663E0,6.456655408E0
3.100309417E0,4.266876984E0,-5.338947601E0,5.840704193E0,8.990240606E0
3.110282417E0,2.866089935E0,-6.918912048E0,6.875652008E0,1.016663199E1
3.120256417E0,2.545307007E0,-1.007884094E1,6.883286133E0,1.246760805E1
3.130229417E0,3.704496460E0,-1.775472885E1,5.918692017E0,1.907838059E1
3.140202417E0,5.662125549E0,-3.087988495E1,2.373763733E0,3.148430902E1
3.150176417E0,7.572602692E0,-3.644576065E1,-3.643722839E0,3.740206541E1
3.160149417E0,1.002390518E1,-3.219490036E1,-9.457782440E0,3.502056443E1
3.170123417E0,9.792037354E0,-3.090518234E1,-1.327888641E1,3.503345709E1
3.180096417E0,5.812413025E0,-3.084321121E1,-1.800650528E1,3.618455548E1
3.190070417E0,2.956352234E0,-3.237767029E1,-1.891002640E1,3.761173554E1
3.200043417E0,8.583151245E-1,-3.512640427E1,-9.759554901E0,3.646710701E1
3.210017417E0,1.126407623E0,-3.547652618E1,-7.054530029E0,3.618865980E1
3.219990417E0,1.372196503E0,-3.272704376E1,-4.568499756E0,3.307285151E1
3.229964417E0,2.675985260E0,-2.807052704E1,-1.293011169E0,2.822742041E1
3.239937417E0,5.181774445E0,-2.251722519E1,-3.604504395E0,2.338522329E1
3.249911417E0,6.891668701E0,-1.753438705E1,-4.113895111E0,1.928403381E1
3.259884417E0,7.014862518E0,-1.356060059E1,-3.250490570E0,1.560973649E1
3.269858417E0,6.162235565E0,-1.079854431E1,-3.643124084E0,1.295585040E1
3.279831417E0,4.249213715E0,-8.848848724E0,-3.704047394E0,1.049180194E1
3.289805417E0,2.472109222E0,-6.779851227E0,-2.692301331E0,7.702349844E0
3.299778417E0,8.872050476E-1,-4.885839844E0,-1.432071991E0,5.168113192E0
3.309752417E0,-7.737409973E-1,-3.536396027E0,-1.338217163E0,3.859481463E0
3.319725417E0,-2.433190155E0,-2.512375488E0,-1.120569763E0,3.672617802E0
3.329699417E0,-3.701502686E0,-1.947599945E0,5.453160095E-1,4.218013422E0
3.339672417E0,-3.869752808E0,-1.628463593E0,1.531764679E0,4.469136773E0
3.349646417E0,-3.279829559E0,-1.039288788E0,1.257984009E0,3.663321838E0
3.359619417E0,-2.644999695E0,-2.017803955E-1,7.539820862E-1,2.757757730E0
3.369592417E0,-1.828896790E0,5.641767883E-1,-2.868035889E-1,1.935307524E0
3.379566417E0,-7.370672607E-1,1.178349609E0,-8.270301819E-1,1.617329549E0
3.389539417E0,1.508862305E-1,1.457070007E0,-5.029541016E-2,1.465724834E0
3.399513417E0,7.213499451E-1,1.586251373E0,1.124761047E0,2.074036301E0
3.409486417E0,1.156944122E0,1.586101685E0,1.381477203E0,2.400566083E0
3.419460417E0,1.017583923E0,1.231788483E0,9.970765686E-1,1.883332576E0
3.429433417E0,3.165916443E-1,-6.885681152E-3,3.002755737E-1,4.363978712E-1
3.439407417E0,-3.665876770E-1,-7.939489746E-1,-9.080117798E-1,1.260645427E0
3.449380417E0,-8.891510010E-1,-9.650431824E-1,-2.296973419E0,2.645370434E0
3.459354417E0,-7.728428650E-1,-1.068478088E0,-2.761607208E0,3.060295066E0
3.469327417E0,-1.207987976E-1,-7.550299072E-1,-2.203867035E0,2.332743539E0
3.479301417E0,3.040177917E-1,-2.266287231E-1,-1.745669861E0,1.786379204E0
3.489274417E0,4.577481079E-1,-2.350112915E-2,-1.115630035E0,1.206116084E0
3.499248417E0,2.725831604E-1,-4.715194702E-2,-1.692979431E-1,3.243249589E-1
3.509221417E0,-2.011816406E-1,-6.137237549E-2,3.671864319E-1,4.231624945E-1
3.519195417E0,-6.053411865E-1,-8.652008057E-2,4.911286926E-1,7.843029193E-1
3.529168417E0,-7.235952759E-1,-2.799179077E-1,7.924520874E-1,1.109019598E0
3.539141417E0,-5.830375671E-1,-5.366340637E-1,1.017883301E0,1.289959432E0
3.549115417E0,-3.664379883E-1,-6.987469482E-1,1.224753113E0,1.456895427E0
3.559088417E0,-3.897894287E-1,-1.065933380E0,6.300398254E-1,1.298113998E0
3.569062417E0,2.516267395E-1,-2.840642853E0,-3.797752533E0,4.749262273E0
3.579035417E0,2.298769684E0,-4.807402954E0,-1.682800598E0,5.588137711E0
3.589009417E0,3.293451233E0,-5.070106659E0,6.438710632E0,8.832315504E0
3.598982417E0,3.728895721E0,-5.970783691E0,6.381679230E0,9.501618335E0
3.608956417E0,5.244044952E0,-1.115570160E1,3.678151245E0,1.286384399E1
3.618929417E0,5.887257385E0,-2.072694809E1,1.820514221E0,2.162360859E1
3.628903417E0,3.860921173E0,-2.884456741E1,3.499123535E0,2.931142520E1
3.638876417E0,9.931547241E0,-2.844654510E1,3.761378174E0,3.036428041E1
3.648850417E0,1.447489929E1,-2.818264389E1,-3.336561584E0,3.185775839E1
3.658823417E0,1.110600494E1,-3.320335327E1,-8.189320221E0,3.595651513E1
3.668797417E0,6.984625397E0,-3.830190079E1,-1.142020157E1,4.057390294E1
3.678770417E0,3.082689514E0,-4.142410812E1,-1.641815826E1,4.466559783E1
3.688744417E0,-3.442840576E-2,-3.925871109E1,-1.622176666E1,4.247815080E1
3.698717250E0,-2.351609802E-1,-3.278527267E1,-9.216484222E0,3.405690806E1
3.708691250E0,7.324269104E-1,-2.646182236E1,-2.312091980E0,2.657273529E1
3.718664250E0,2.976709900E0,-2.187416245E1,-3.608995056E-1,2.207872354E1
3.728638250E0,4.757556610E0,-1.738814117E1,-5.637277222E-1,1.803606352E1
3.738611250E0,5.189707947E0,-1.443777649E1,-2.680924988E-1,1.534452124E1
3.748585250E0,4.620142365E0,-1.280631912E1,1.299298096E-1,1.361485977E1
3.758558250E0,4.019441528E0,-1.114986374E1,-2.977308655E-1,1.185596960E1
3.768531250E0,2.526595917E0,-9.142987061E0,-9.512718201E-1,9.533247998E0
3.778505250E0,4.144880676E-1,-7.306755524E0,-2.560275879E0,7.753417905E0
3.788478250E0,-5.493576050E-1,-5.334157562E0,-4.301455078E0,6.874412445E0
3.798452250E0,-5.170248413E-1,-3.251538391E0,-5.190755768E0,6.146849765E0
3.808425250E0,-2.948867798E-1,-1.417402496E0,-5.206173706E0,5.403723967E0
3.818399250E0,-3.716770935E-1,-3.182382202E-1,-4.508474579E0,4.534949002E0
3.828372250E0,-7.533833313E-1,4.225712585E-1,-3.587589569E0,3.690115422E0
3.838346250E0,-1.065933380E0,9.734257507E-1,-2.818638611E0,3.166779955E0
3.848319250E0,-1.442250824E0,1.299148407E0,-1.720522156E0,2.593852446E0
3.858293250E0,-1.659748535E0,1.544488220E0,-2.815794525E0,3.615094448E0
3.868266250E0,-1.583257599E0,1.752705231E0,-4.470154266E0,5.055784748E0
3.878240250E0,-5.101391602E-1,1.948647766E0,-4.213887177E0,4.670579752E0
3.888213250E0,6.346801758E-1,1.051413574E0,-1.312171326E0,1.797243172E0
3.898187250E0,3.607498169E-2,-7.217990112E-1,1.926643524E0,2.057729449E0
3.908160250E0,-9.204359436E-1,-2.046394501E0,2.918930054E0,3.681723161E0
3.918134250E0,-1.239721985E0,-2.217937775E0,2.518512726E0,3.577578081E0
3.928107250E0,-8.599617004E-1,-2.024390259E0,1.582359467E0,2.709529761E0
3.938080250E0,-4.486170959E-1,-1.784139862E0,1.086889801E0,2.136759646E0
3.948054250E0,-4.317022705E-1,-1.062490540E0,1.060095520E0,1.561747582E0
3.958027250E0,-3.212319946E-1,-3.149450684E-1,1.082099762E0,1.171887488E0
3.968001250E0,5.254074097E-2,8.981323242E-2,1.202748871E0,1.207241398E0
3.977974250E0,5.263055420E-1,2.926414490E-1,1.288071442E0,1.421887682E0
3.987948250E0,9.891430664E-1,4.878355408E-1,1.336121521E0,1.732515004E0
3.997921250E0,1.284478912E0,6.553372192E-1,1.174757080E0,1.859948156E0
4.007895250E0,1.713786163E0,4.228706360E-1,4.552033997E-1,1.822935195E0
4.017868250E0,2.576891327E0,-2.080673218E-1,-4.438270569E-1,2.623098050E0
4.027842250E0,3.183130646E0,-8.012837219E-1,-1.110839996E0,3.465305442E0
4.037815250E0,3.269650726E0,-2.220931549E0,-5.278024292E-1,3.987697108E0
4.047789250E0,3.940405884E0,-4.079466705E0,1.463207245E0,5.857458713E0
4.057762250E0,5.299429779E0,-5.995182953E0,1.946851501E0,8.235071669E0
4.067736250E0,6.506968689E0,-8.682993622E0,1.019829254E0,1.089839766E1
4.077709250E0,8.540489960E0,-1.245499969E1,5.912704468E-2,1.510200259E1
4.087683250E0,8.513695679E0,-1.787582703E1,9.837542725E-1,1.982412617E1
4.097656250E0,2.438279572E0,-2.321941498E1,6.388415222E0,2.420533595E1
4.107630250E0,-1.886826324E0,-3.387111465E1,7.125183105E-2,3.392370260E1
4.117603250E0,-2.797233124E0,-4.591057846E1,-1.482023117E1,4.832437252E1
4.127577250E0,-1.867067413E0,-4.050382187E1,-1.463626373E1,4.310760655E1
4.137550250E0,1.865420837E0,-3.272375061E1,-1.307590851E1,3.528885139E1
4.147523250E0,6.876999207E0,-2.940784607E1,-7.768694916E0,3.118440555E1
4.157497250E0,1.057446030E1,-2.797038528E1,-2.013313293E0,2.997023680E1
4.167470250E0,1.251891678E1,-2.733316040E1,-2.651735687E0,3.018040154E1
4.177444250E0,1.328098206E1,-2.513034119E1,-4.802313538E0,2.882673668E1
4.187417250E0,1.081501007E1,-2.262380356E1,-3.306324463E0,2.529293798E1
4.197391250E0,7.038663025E0,-2.102183487E1,-2.758014679E0,2.233980670E1
4.207364250E0,3.505859528E0,-1.835258560E1,-3.829636230E0,1.907287506E1
4.217338250E0,3.541635132E-1,-1.508009079E1,-3.691623230E0,1.552941248E1
4.227311250E0,-1.617536316E0,-1.184920944E1,-3.537443848E0,1.247131497E1
4.237285250E0,-2.004930725E0,-8.605155487E0,-2.601290588E0,9.210600463E0
4.247258250E0,-2.071991272E0,-5.933810577E0,-1.353485413E0,6.429244012E0
4.257232250E0,-2.103575592E0,-4.161346436E0,-4.790039062E-1,4.687353109E0
4.267205250E0,-2.411036224E0,-2.786904602E0,7.870632935E-1,3.768209331E0
4.277179250E0,-2.950214996E0,-1.718127136E0,1.631457367E0,3.783831725E0
4.287152250E0,-2.825075226E0,-8.927435303E-1,1.430126038E0,3.289878649E0
4.297126250E0,-2.129172363E0,-2.198927307E-1,8.071215820E-1,2.287612951E0
4.307099250E0,-1.298399963E0,2.673440552E-1,-1.901046753E-2,1.325774003E0
4.317073250E0,-5.385800171E-1,6.027964783E-1,-7.494914246E-1,1.102347234E0
4.327046250E0,1.230441284E-1,7.297325134E-1,-1.223705292E0,1.430071341E0
4.337019250E0,7.878117371E-1,8.089178467E-1,-1.855541382E0,2.172102492E0
4.346993250E0,2.161205750E0,9.029223633E-1,-5.503904572E0,5.981558711E0
4.356966250E0,3.479664001E0,4.945715332E-1,-7.770042114E0,8.527966758E0
4.366940250E0,3.116219788E0,-4.474195862E-1,-4.095932465E0,5.166011305E0
4.376913250E0,1.474284210E0,-1.187330933E0,8.640032959E-1,2.080810028E0
4.386887250E0,-5.387297058E-1,-1.215322723E0,3.284020844E0,3.542884689E0
4.396860250E0,-1.131497040E0,-1.173409882E0,2.138752441E0,2.689133375E0
4.406834250E0,-1.154100037E0,-1.127754822E0,1.747615814E0,2.378642232E0
4.416807250E0,-1.719174957E0,-9.148974609E-1,1.453627167E0,2.430150579E0
4.426781250E0,-1.718127136E0,-7.777825928E-1,1.169068909E0,2.218925130E0
4.436754250E0,-1.531315613E0,-6.222560120E-1,8.544232178E-1,1.860690486E0
4.446728250E0,-1.410367126E0,-4.228706360E-1,4.275109863E-1,1.533206004E0
4.456701250E0,-1.178199921E0,-2.182461548E-1,-2.906954956E-1,1.233000531E0
4.466675250E0,-8.421487427E-1,-1.219963074E-1,-5.159770203E-1,9.951531989E-1
4.476648250E0,-5.855822754E-1,-2.074685669E-1,2.778222656E-1,6.805402404E-1
4.486622250E0,-7.198530579E-1,-5.607339478E-1,8.449928284E-1,1.243633332E0
4.496595250E0,-8.428971863E-1,-1.050515442E0,5.689668274E-1,1.462115457E0
4.506568250E0,-6.990463257E-2,-1.948647766E0,-2.237846375E-1,1.962700776E0
4.516542250E0,1.752705231E0,-3.654799805E0,-1.877096558E0,4.466881320E0
4.526515250E0,4.091142426E0,-4.261488190E0,-1.383423157E0,6.067255357E0
4.536489250E0,5.046156464E0,-4.455185394E0,3.931274872E0,7.795337970E0
4.546462250E0,8.054899750E0,-7.337741089E0,1.276695099E0,1.097058816E1
4.556436250E0,1.177167068E1,-1.471455093E1,-4.794230347E0,1.944414782E1
4.566409250E0,6.754853210E0,-2.413820435E1,4.466412048E0,2.546035718E1
4.576383250E0,8.899144135E0,-3.167158859E1,5.881269836E-1,3.290334609E1
4.586356250E0,9.311835938E0,-3.599385040E1,-9.224866791E0,3.830620998E1
4.596330250E0,-4.957690430E-1,-3.701068588E1,-1.170925049E1,3.882194229E1
4.606303250E0,-1.491348724E0,-3.636492874E1,-1.311258224E1,3.868555256E1
4.616277250E0,2.045196991E0,-3.268004150E1,-9.971663818E0,3.422867252E1
4.626250250E0,4.750221863E0,-3.128120041E1,-5.743107147E0,3.215682488E1
4.636224250E0,9.305998077E0,-3.151411606E1,-4.637057190E0,3.318498773E1
4.646197250E0,1.071382050E1,-3.001184006E1,-4.742138672E0,3.221776486E1
4.656171250E0,8.951385498E0,-2.807486801E1,-5.442083130E0,2.996567678E1
4.666144250E0,6.877597961E0,-2.479593658E1,-5.110223236E0,2.623459941E1
4.676118250E0,7.101831665E0,-2.062950073E1,-4.019441528E0,2.218486474E1
4.686091250E0,8.158933411E0,-1.635304367E1,-3.612138519E0,1.862894995E1
4.696065750E0,7.621999969E0,-1.214694031E1,-2.915936279E0,1.463371883E1
4.706038750E0,5.733078003E0,-8.501421204E0,-1.853445740E0,1.042005792E1
4.716011750E0,2.956950989E0,-5.971681824E0,-1.182840271E0,6.767839689E0
4.725985750E0,2.689906311E-1,-4.385879517E0,-5.417234802E-1,4.427387426E0
4.735958750E0,-1.577120361E0,-2.950214996E0,6.153703308E-1,3.401434668E0
4.745932750E0,-2.375110931E0,-1.717977448E0,1.670975189E0,3.374130485E0
4.755905750E0,-2.076781311E0,-8.250842285E-1,2.073787537E0,3.048668454E0
4.765879750E0,-1.676663361E0,-9.011260986E-2,1.721569977E0,2.404812569E0
4.775852750E0,-1.536554718E0,3.646417236E-1,1.227746887E0,2.000331574E0
4.785826750E0,-1.391057281E0,6.770420837E-1,8.313711548E-1,1.756304171E0
4.795799750E0,-1.040935364E0,8.910969543E-1,4.794529724E-1,1.451714630E0
4.805773750E0,-7.336244202E-1,9.834548950E-1,1.697470093E-1,1.238629229E0
4.815746750E0,-4.354444885E-1,1.130598907E0,-2.176473999E-1,1.230949301E0
4.825720750E0,-2.457888794E-1,1.254241791E0,-4.105961609E-1,1.342432065E0
4.835693750E0,-1.303788757E-1,1.159788208E0,2.065704346E-2,1.167276339E0
4.845667750E0,4.490661621E-2,9.889933777E-1,8.054750061E-1,1.276289344E0
4.855640750E0,5.813909912E-1,5.051994324E-1,1.171763306E0,1.402237924E0
4.865614750E0,8.530760193E-1,-3.125500488E-1,9.358538818E-1,1.304319254E0
4.875587750E0,6.089337158E-1,-5.327421570E-1,3.469784546E-1,8.803456844E-1
4.885560750E0,1.974394226E-1,-6.074368286E-1,-7.515870667E-1,9.863290248E-1
4.895534750E0,-2.960842896E-1,-7.888595581E-1,-3.342698822E0,3.447259886E0
4.905507750E0,-5.716612244E-1,-9.767189026E-1,-5.145849152E0,5.268827181E0
4.915481750E0,-5.472619629E-1,-1.013093262E0,-4.947212219E0,5.079445083E0
4.925454750E0,-5.120851135E-1,-6.885681152E-1,-4.080963593E0,4.170206357E0
4.935428750E0,-9.131011963E-1,-1.273851013E-1,-3.168461151E0,3.299867698E0
4.945401750E0,-1.679956512E0,3.353027344E-2,-2.333647156E0,2.875636836E0
4.955375750E0,-2.185305634E0,-2.642005920E-1,-1.241518250E0,2.527198098E0
4.965348750E0,-1.878144379E0,-6.637197876E-1,-3.430865479E-1,2.021301225E0
4.975322750E0,-1.450483704E0,-1.076860657E0,3.653901672E-1,1.843106568E0
4.985295750E0,-1.272653503E0,-1.230141907E0,1.284778290E0,2.187133125E0
4.995269750E0,-1.281036072E0,-1.439107361E0,2.168091431E0,2.900466146E0
5.005242750E0,-6.557862854E-1,-3.832180939E0,9.379495239E-1,3.999426923E0
5.015216750E0,1.362616425E0,-5.893694000E0,1.106648712E0,6.149554769E0
5.025189750E0,5.036726074E0,-6.193670197E0,3.650458832E0,8.778155258E0
5.035163750E0,1.047686325E1,-9.616302795E0,-2.960244141E0,1.452587307E1
5.045136750E0,1.358949051E1,-2.426289505E1,-7.780819702E0,2.887738707E1
5.055110750E0,3.702700195E0,-4.082191040E1,5.722749481E0,4.138705376E1
5.065083750E0,8.869505768E0,-3.723866180E1,3.747157745E0,3.846332353E1
5.075056750E0,1.075513458E1,-3.258783325E1,-4.212839355E0,3.457438085E1
5.085030750E0,3.087928619E0,-3.512730240E1,-1.276740005E1,3.750292230E1
5.095003750E0,2.321222992E0,-3.576782043E1,-1.161449753E1,3.767786628E1
5.104977750E0,4.092489624E0,-3.633094940E1,-6.418802032E0,3.711990538E1
5.114950750E0,5.328170013E0,-3.252331741E1,-5.336702271E0,3.338616424E1
5.124924750E0,7.361242218E0,-2.716012024E1,-4.685706024E0,2.852745799E1
5.134897750E0,9.151519318E0,-2.439911179E1,-2.994223480E0,2.623037049E1
5.144871750E0,8.507408752E0,-2.160457306E1,-1.379231873E0,2.326017759E1
5.154844750E0,6.880142670E0,-1.794318695E1,-1.290466461E0,1.926031217E1
5.164818750E0,5.069358215E0,-1.453058350E1,-1.734143829E0,1.548688168E1
5.174791750E0,3.496878204E0,-1.157991943E1,-2.041155396E0,1.226739608E1
5.184765750E0,2.050436096E0,-9.098080444E0,-1.502126312E0,9.446467033E0
5.194738750E0,6.219566345E-1,-7.043752441E0,-7.523355103E-1,7.111067939E0
5.204712750E0,-5.155279541E-1,-5.307063904E0,-5.134323120E-2,5.332291485E0
5.214685750E0,-1.216370544E0,-3.751199341E0,5.715115356E-1,3.984680568E0
5.224659750E0,-1.422791290E0,-2.431693268E0,8.539741516E-1,2.943932583E0
5.234632750E0,-1.237925720E0,-1.481768646E0,5.782475281E-1,2.015556651E0
5.244606750E0,-1.171164551E0,-7.384144592E-1,-5.688171387E-2,1.385683170E0
5.254579750E0,-9.912387085E-1,-1.269360352E-1,-4.885839844E-1,1.112376395E0
5.264553750E0,-6.177653503E-1,3.847000122E-1,-6.644682312E-1,9.854674818E-1
5.274526750E0,-2.463876343E-1,6.792874146E-1,-6.692582703E-1,9.849085695E-1
5.284499750E0,-8.113128662E-2,8.113128662E-1,-6.592291260E-1,1.048519858E0
5.294473750E0,-1.149609375E-1,9.101074219E-1,-9.056167603E-1,1.289051300E0
5.304446750E0,-3.008743286E-1,9.930349731E-1,-1.879491577E0,2.146889007E0
5.314420750E0,-6.261479187E-1,1.053060150E0,-4.912634125E0,5.063098946E0
5.324393750E0,-1.956431580E-1,2.330653381E-1,-3.284469910E0,3.298535779E0
5.334367750E0,7.958949280E-1,-8.915460205E-1,1.085991669E0,1.614831554E0
5.344340750E0,5.081932068E-1,-1.416204987E0,2.020648041E0,2.519308517E0
5.354314750E0,-3.131488037E-1,-1.875449982E0,1.274898834E0,2.289266661E0
5.364287750E0,-8.491841125E-1,-1.646575928E0,8.616082764E-1,2.043206980E0
5.374261750E0,-9.410929871E-1,-9.833052063E-1,4.055067444E-1,1.420204513E0
5.384234750E0,-9.136999512E-1,-5.486091614E-1,-6.810836792E-2,1.067922452E0
5.394208750E0,-1.090332642E0,-1.902543640E-1,-1.270557861E0,1.685033908E0
5.404181750E0,-1.224154358E0,1.550775146E-1,-2.596799927E0,2.875060484E0
5.414155750E0,-9.297166443E-1,3.159928894E-1,-1.777553558E0,2.030744001E0
5.424128750E0,-5.611830139E-1,3.189866638E-1,-6.020480347E-1,8.826894714E-1
5.434102750E0,-4.381388855E-1,8.277786255E-2,-3.496728516E-1,5.666471218E-1
5.444075750E0,-1.863624573E-1,-4.278103638E-1,-1.101708984E-1,4.794687682E-1
5.454048750E0,3.754193115E-1,-8.961863708E-1,5.614823914E-1,1.122208602E0
5.464022750E0,8.053253174E-1,-8.274792480E-1,1.247805176E0,1.700084859E0
5.473995750E0,1.740131378E0,-6.792874146E-1,7.396119690E-1,2.009107879E0
5.483969750E0,4.550387421E0,-2.079924774E0,-3.308719482E0,5.998311209E0
5.493942750E0,7.299271088E0,-3.677552490E0,-3.721411285E0,8.980682195E0
5.503916750E0,5.301675110E0,-7.235653381E0,4.634213104E0,1.009645333E1
5.513889750E0,2.342179413E0,-1.160521683E1,9.289981384E0,1.504894070E1
5.523863750E0,5.147196350E0,-1.949276459E1,7.470215607E0,2.150036332E1
5.533836750E0,1.047416885E1,-4.052762238E1,-2.274819489E0,4.192101135E1
5.543810750E0,8.791517944E0,-5.405289642E1,-9.982740784E0,5.566562236E1
5.553783750E0,4.288132782E0,-4.897410782E1,-1.087937622E1,5.035089022E1
5.563757750E0,2.684367828E0,-4.432776993E1,-1.605905502E1,4.722340803E1
5.573730750E0,3.034639435E0,-3.631388489E1,-1.149699188E1,3.821109910E1
5.583704750E0,6.292464752E0,-3.037573334E1,-4.367916870E0,3.132664978E1
5.593677750E0,1.007914032E1,-2.767460037E1,-7.198530579E-1,2.946168298E1
5.603651750E0,1.198198334E1,-2.498184998E1,-1.242566071E0,2.773454026E1
5.613624750E0,1.140268799E1,-2.262904266E1,-1.659299469E0,2.539386028E1
5.623598750E0,9.673034821E0,-2.063024918E1,-2.596949615E0,2.293292243E1
5.633571750E0,6.472989349E0,-1.831187027E1,-2.871329041E0,1.963335718E1
5.643544750E0,3.139870605E0,-1.514071472E1,-2.692750397E0,1.569557053E1
5.653518750E0,4.568499756E-1,-1.154384445E1,-2.198478241E0,1.176020252E1
5.663491750E0,-2.008523254E0,-8.660690002E0,-2.156565399E0,9.148360034E0
5.673465750E0,-4.048032074E0,-7.023544464E0,-1.688638458E0,8.280594203E0
5.683438750E0,-4.461023254E0,-5.535937958E0,-9.348060608E-1,7.170857684E0
5.693412750E0,-3.338357849E0,-4.035458221E0,-1.769320679E-1,5.240311168E0
5.703385917E0,-2.264191589E0,-2.603685608E0,4.204756165E-1,3.475995115E0
5.713359917E0,-1.478176117E0,-1.157991943E0,3.451821899E-1,1.909214686E0
5.723332917E0,-8.891510010E-1,1.017883301E-2,-1.978884888E-1,9.109626585E-1
5.733306917E0,-2.692900085E-1,5.312452698E-1,-5.734574890E-1,8.267963093E-1
5.743279917E0,3.365002441E-1,7.045848083E-1,-5.890251160E-1,9.780709349E-1
5.753253917E0,1.003213806E0,1.012943573E0,-1.461261292E0,2.041513455E0
5.763226917E0,1.695075073E0,2.089654541E0,-5.112019501E0,5.776909120E0
5.773200917E0,1.236728210E0,2.464924164E0,-3.333717499E0,4.326548296E0
5.783173917E0,7.622149658E-1,1.884281616E0,8.852590942E-1,2.217018838E0
5.793147917E0,3.776646423E-1,1.609153748E0,2.619402924E0,3.097301736E0
5.803120917E0,-1.649569702E-1,1.362616425E0,2.287243652E0,2.667474058E0
5.813093917E0,-5.263055420E-1,1.126707001E0,6.491999817E-1,1.402828145E0
5.823067917E0,-7.044351196E-1,8.689430237E-1,-7.785310364E-1,1.362865140E0
5.833040917E0,-6.337820435E-1,4.963677979E-1,-1.545835419E0,1.742890648E0
5.843014917E0,-7.818241882E-1,1.366658020E-1,-2.444865875E0,2.570466057E0
5.852987917E0,-1.203347626E0,-2.276765442E-1,-5.390739899E0,5.528106256E0
5.862961917E0,-7.530839539E-1,-7.795788574E-1,-4.660109253E0,4.784505919E0
5.872934917E0,-3.480262756E-1,-1.035396881E0,-2.033820648E0,2.308591653E0
5.882908917E0,-6.466552734E-2,-1.102457428E0,-4.224215698E-1,1.182384875E0
5.892881917E0,4.564009094E-1,-1.078207855E0,3.035687256E-1,1.209540384E0
5.902855917E0,5.698649597E-1,-8.051756287E-1,-1.528321838E-1,9.982041583E-1
5.912828917E0,-2.824626160E-1,-3.781137085E-1,-5.128335571E-1,6.969600873E-1
5.922802917E0,-1.037791901E0,-1.170565796E-1,-3.987707520E-1,1.117914301E0
5.932775917E0,-1.035396881E0,-2.149530029E-1,8.711883545E-2,1.061056637E0
5.942749917E0,-7.158114624E-1,-8.396040344E-1,3.478765869E-1,1.156866070E0
5.952722917E0,-5.408253479E-1,-1.478026428E0,6.542893982E-1,1.704449705E0
5.962695917E0,-2.043251038E-1,-2.226919098E0,2.541415100E0,3.385219066E0
5.972669917E0,8.671467590E-1,-3.617377625E0,2.413880310E0,4.434431478E0
5.982642917E0,2.970273285E0,-4.554578705E0,3.281176758E-1,5.447418818E0
5.992616917E0,5.444777527E0,-5.517077179E0,4.269122314E-1,7.763117735E0
6.002589917E0,6.310577087E0,-7.710166626E0,2.585722961E0,1.029349386E1
6.012563917E0,5.390889587E0,-1.344968124E1,5.745951233E0,1.558754540E1
6.022536917E0,9.473649445E0,-3.183849152E1,3.859723663E0,3.344154665E1
6.032510917E0,1.290182053E1,-4.880091797E1,-3.028202820E-1,5.047849312E1
6.042483917E0,1.010084518E1,-4.394217178E1,-6.289321289E0,4.552468667E1
6.052457917E0,3.582799530E0,-4.195415588E1,-9.466015320E0,4.315776980E1
6.062430917E0,-1.954036560E0,-4.320151199E1,-1.783735703E1,4.677991239E1
6.072404917E0,-2.930156708E0,-3.841910706E1,-1.363619339E1,4.087247699E1
6.082377917E0,-1.221909027E0,-3.430206848E1,-4.015848999E0,3.455795143E1
6.092351917E0,2.379152527E0,-3.070070755E1,-3.815565491E-1,3.079511968E1
6.102324917E0,6.427933044E0,-2.605736343E1,6.750961304E-2,2.683857429E1
6.112297917E0,8.990005188E0,-2.149425247E1,-4.224215698E-1,2.330239307E1
6.122271917E0,1.007210495E1,-1.845437393E1,-1.892065430E-1,2.102491414E1
6.132244917E0,1.013287857E1,-1.547452057E1,-1.588197327E0,1.856497740E1
6.142218917E0,8.154442749E0,-1.247805176E1,-3.004851379E0,1.520611206E1
6.152191917E0,5.052742767E0,-9.899214478E0,-2.975063324E0,1.150546212E1
6.162165917E0,2.124831390E0,-8.097261658E0,-3.046315155E0,8.908456141E0
6.172138917E0,-1.356179810E-1,-6.983128510E0,-3.693269806E0,7.900804888E0
6.182112917E0,-1.717977448E0,-6.322552185E0,-2.674188995E0,7.076538661E0
6.192085917E0,-2.391876068E0,-5.412744141E0,-1.595083008E0,6.128879185E0
6.202059917E0,-2.314037933E0,-4.135001221E0,-3.195854187E-1,4.749225357E0
6.212032917E0,-1.683698730E0,-2.900069275E0,4.939727783E-3,3.353396430E0
6.222006917E0,-1.072369995E0,-1.395697632E0,-3.600013733E-1,1.796538414E0
6.231979917E0,-6.673123169E-1,-1.648072815E-1,-7.134164429E-1,9.906715850E-1
6.241953917E0,-7.783813477E-3,5.099894714E-1,-1.255289612E0,1.354954559E0
6.251926917E0,1.519340515E0,1.415157166E0,-6.157744904E0,6.498375774E0
6.261900917E0,3.247646484E0,2.543959808E0,-1.181478104E1,1.251431141E1
6.271873917E0,1.561552734E0,2.307301941E0,-4.004322968E0,4.878185279E0
6.281846917E0,-1.090033264E0,2.361788635E0,5.233716431E0,5.844485072E0
6.291820917E0,-2.478845215E0,1.482517090E0,5.904770966E0,6.573343949E0
6.301793917E0,-1.738784180E0,-7.132667542E-1,2.406096497E0,3.053100103E0
6.311767917E0,-1.339564362E0,-8.198451233E-1,1.082399139E0,1.907397861E0
6.321740917E0,-1.146316223E0,-5.683680725E-1,2.210902405E-1,1.298446781E0
6.331714917E0,-1.195114746E0,-5.249583435E-1,-3.320095825E-1,1.346889335E0
6.341687917E0,-1.376537476E0,-5.456153870E-1,-5.954617310E-1,1.595971881E0
6.351661917E0,-1.555116119E0,-5.360353088E-1,-5.867797852E-1,1.746433656E0
6.361634917E0,-1.646725616E0,-5.162763977E-1,-3.776646423E-1,1.766600452E0
6.371608917E0,-1.618135071E0,-4.546046448E-1,-2.097138977E-1,1.693814160E0
6.381581917E0,-1.338666229E0,-3.668870544E-1,-4.938230896E-1,1.473259864E0
6.391555917E0,-4.670288086E-1,-1.760339355E-1,-2.568209381E0,2.616257495E0
6.401528917E0,5.272036743E-1,-1.616638184E-2,-2.726729736E0,2.777275665E0
6.411501917E0,8.056246948E-1,1.142124939E-1,1.803749084E-1,8.334331109E-1
6.421475917E0,5.183720398E-1,2.490820312E-1,1.286125488E0,1.408854216E0
6.431448917E0,-2.499801636E-2,-1.071771240E-1,1.615141296E-1,1.954447513E-1
6.441422917E0,-9.744735718E-2,-4.595443726E-1,-3.661386108E-1,5.955959202E-1
6.451395917E0,1.751358032E-2,-7.376660156E-1,-2.182461548E-1,7.694733655E-1
6.461369917E0,2.110610962E-2,-1.286873932E0,-2.484832764E-1,1.310814221E0
6.471342917E0,7.649093628E-1,-2.863395538E0,-1.586999817E0,3.361947168E0
6.481316917E0,2.618654480E0,-4.823419647E0,-3.351231079E0,6.430667005E0
6.491289917E0,3.619173889E0,-5.070106659E0,1.910327454E0,6.515654392E0
6.501263917E0,2.027683411E0,-5.440286865E0,6.005810852E0,8.353321805E0
6.511236917E0,2.421215057E0,-7.054530029E0,3.618275757E0,8.289788643E0
6.521210917E0,2.223476257E0,-1.447040863E1,3.581602020E0,1.507197551E1
6.531183917E0,1.901795197E0,-3.133149582E1,3.009491730E0,3.153310159E1
6.541156917E0,8.173752594E0,-4.822102386E1,-4.564607849E0,4.912141100E1
6.551130917E0,1.468805603E1,-4.435246857E1,-1.137035522E1,4.808498140E1
6.561103917E0,9.310788116E0,-3.728671188E1,-1.209679459E1,4.029047155E1
6.571077917E0,7.395820313E0,-3.735302399E1,-1.518068161E1,4.099267804E1
6.581050917E0,7.017407227E0,-3.520229645E1,-1.735341339E1,3.986962046E1
6.591024917E0,4.845274200E0,-3.309902023E1,-1.157378220E1,3.539737641E1
6.600997917E0,3.269351349E0,-3.104858414E1,-3.979774017E0,3.147287461E1
6.610971917E0,2.557282104E0,-2.765124893E1,-1.206491089E0,2.779544711E1
6.620944917E0,2.493814087E0,-2.374317581E1,-1.323248291E-1,2.387414954E1
6.630918917E0,2.427352295E0,-1.994886612E1,3.739224243E-1,2.009948051E1
6.640891917E0,3.133134613E0,-1.650213364E1,9.175918579E-2,1.679718330E1
6.650865917E0,3.561244354E0,-1.393961243E1,-3.209326172E-1,1.439090872E1
6.660838917E0,3.133284302E0,-1.219858292E1,-1.456620941E0,1.267851096E1
6.670812917E0,2.335293732E0,-1.088431595E1,-1.977238312E0,1.130625499E1
6.680785917E0,1.705403595E0,-9.514065399E0,-1.774709473E0,9.827280171E0
6.690759917E0,1.605860596E0,-7.499554596E0,-1.519939270E0,7.818716185E0
6.700732250E0,1.895807648E0,-5.202281799E0,-1.750160522E0,5.806968608E0
6.710705250E0,1.814376984E0,-3.118465118E0,-1.791474609E0,4.028172018E0
6.720679250E0,1.200054474E0,-1.663939819E0,-1.497935028E0,2.540203892E0
6.730652250E0,3.704795837E-1,-6.298901367E-1,-1.149309998E0,1.361958214E0
6.740626250E0,-1.107696533E-2,1.899549866E-1,-1.055155792E0,1.072175052E0
6.750599250E0,-6.451583862E-2,6.749464417E-1,-9.535171509E-1,1.170004252E0
6.760573250E0,-5.388793945E-2,8.626560974E-1,-8.267308044E-1,1.196061568E0
6.770546250E0,-7.424560547E-2,9.023236084E-1,-9.102571106E-1,1.283849022E0
6.780520250E0,-2.384541321E-1,9.458830261E-1,-1.461710358E0,1.757313928E0
6.790493250E0,-5.560935974E-1,1.197360077E0,-3.412304077E0,3.658788100E0
6.800467250E0,-7.958949280E-1,1.560504913E0,-4.719685364E0,5.034287860E0
6.810440250E0,-3.475772095E-1,1.310225372E0,-2.309696960E0,2.678096431E0
6.820413250E0,-1.231938171E-1,-2.609074402E-1,8.143066406E-2,2.998005370E-1
6.830387250E0,-1.032103729E0,-1.611997833E0,7.173083496E-1,2.044090602E0
6.840360250E0,-1.435814209E0,-1.550924835E0,1.362766113E0,2.514768730E0
6.850334250E0,-1.342707825E0,-9.952803040E-1,1.343905334E0,2.144651192E0
6.860307250E0,-1.193318481E0,-5.135820007E-1,8.268804932E-1,1.539969746E0
6.870281250E0,-1.122665405E0,-9.804611206E-2,-1.704954529E-1,1.139762849E0
6.880254250E0,-1.116378479E0,2.032772827E-1,-9.732760620E-1,1.494954466E0
6.890228250E0,-7.960446167E-1,4.812492371E-1,-8.186476135E-1,1.239141548E0
6.900201250E0,-3.544628906E-1,5.664221191E-1,-2.561174011E-1,7.155935166E-1
6.910175250E0,-2.604583740E-2,2.710862732E-1,-6.960525513E-2,2.810890334E-1
6.920148250E0,1.345701599E-1,-2.740800476E-1,-1.387614441E-1,3.353859550E-1
6.930122250E0,3.481759644E-1,-7.958949280E-1,2.335144043E-2,8.690342504E-1
6.940095250E0,7.644602966E-1,-1.097218323E0,5.239105225E-2,1.338294592E0
6.950068250E0,9.219328308E-1,-1.296903076E0,-4.986131287E-1,1.667492964E0
6.960042250E0,5.400769043E-1,-1.596879272E0,-9.358538818E-1,1.928089459E0
6.970015250E0,-6.526428223E-2,-2.162702637E0,-8.158035278E-2,2.165224579E0
6.979989250E0,2.971321106E-1,-4.138144684E0,6.408174133E-1,4.197996650E0
6.989962250E0,2.209106140E0,-5.190905457E0,1.281634827E0,5.785173915E0
6.999936250E0,4.431235199E0,-7.174730072E0,1.328487396E0,8.536830545E0
7.009909250E0,9.257947998E0,-1.235560638E1,-8.134534149E0,1.745111045E1
7.019883250E0,1.163455582E1,-2.195200058E1,-4.964426422E0,2.533572080E1
7.029856250E0,5.817203064E0,-3.427587296E1,4.968168640E0,3.511919729E1
7.039830250E0,7.749534760E0,-4.856845139E1,-8.910071411E0,4.998338856E1
7.049803250E0,4.449048157E0,-4.166450821E1,-1.225366837E1,4.365635878E1
7.059777250E0,-1.157393188E0,-3.231644760E1,-1.179666870E1,3.442170445E1
7.069750250E0,-1.597178650E-1,-3.405747711E1,-8.712182922E0,3.515450737E1
7.079723250E0,2.144739990E0,-3.369972107E1,-3.599864044E0,3.395924220E1
7.089697250E0,3.946243744E0,-3.254966263E1,-1.489851837E0,3.282183778E1
7.099670250E0,5.195246429E0,-2.880265457E1,-2.205064545E0,2.935039702E1
7.109644250E0,6.128854980E0,-2.419658295E1,-3.748355255E0,2.524059541E1
7.119617250E0,5.883814545E0,-2.126253433E1,-3.833827515E0,2.239225029E1
7.129591250E0,5.704038391E0,-1.800949905E1,-3.678300934E0,1.924598680E1
7.139564250E0,5.708678741E0,-1.453851700E1,-2.984942780E0,1.590180408E1
7.149538250E0,5.415588226E0,-1.160850998E1,-2.609224091E0,1.307264893E1
7.159511250E0,4.707859955E0,-8.764424286E0,-2.144290924E0,1.017728166E1
7.169485250E0,3.630400543E0,-6.386469269E0,-1.771416321E0,7.556766081E0
7.179458250E0,2.583028564E0,-4.550237732E0,-1.721569977E0,5.508221416E0
7.189432250E0,1.883682861E0,-2.647843781E0,-1.388961639E0,3.533914578E0
7.199405250E0,1.076112213E0,-1.147962799E0,-1.170416107E0,1.961048176E0
7.209378250E0,1.148112488E-1,-1.776805115E-1,-1.533261566E0,1.547786490E0
7.219352250E0,-8.884025574E-1,6.167175293E-1,-2.157313843E0,2.413214170E0
7.229325250E0,-1.706152039E0,1.057401123E0,-2.611768799E0,3.293992740E0
7.239299250E0,-2.290686493E0,9.487271118E-1,-2.371368713E0,3.430847900E0
7.249272250E0,-2.503693542E0,6.906637573E-1,-1.660796356E0,3.082814026E0
7.259246250E0,-2.312690735E0,5.533992004E-1,-1.611997833E0,2.872860269E0
7.269219250E0,-1.745370483E0,3.610491943E-1,-2.558180237E0,3.117845533E0
7.279193250E0,-3.724255371E-1,-1.824705505E-1,-3.084635468E0,3.112390119E0
7.289166250E0,7.432044983E-1,-7.923023987E-1,-2.395169220E0,2.630006009E0
7.299140250E0,5.974076843E-1,-1.114881592E0,-8.839118958E-1,1.543099849E0
7.309113250E0,-2.650987244E-1,-9.433383179E-1,6.276448059E-1,1.163659107E0
7.319087250E0,-2.803669739E-1,-5.504054260E-1,5.653742981E-1,8.373767790E-1
7.329060250E0,-2.871029663E-1,-3.156935120E-1,2.261796570E-1,4.829572900E-1
7.339033250E0,-5.508544922E-1,-2.396516418E-1,5.239105225E-3,6.007503885E-1
7.349007250E0,-7.102729797E-1,-1.119671631E-1,-6.101312256E-1,9.430188035E-1
7.358980250E0,-6.785389709E-1,1.811233521E-1,-1.594184875E0,1.742023599E0
7.368954250E0,-6.497987366E-1,5.041516113E-1,-2.459385681E0,2.593257637E0
7.378927250E0,-5.605842590E-1,5.138813782E-1,-2.095043335E0,2.228796841E0
7.388901250E0,-4.354444885E-1,1.678010559E-1,-1.261127472E0,1.344697586E0
7.398874250E0,-4.251159668E-1,-2.486329651E-1,-1.007105713E0,1.121072635E0
7.408848250E0,-6.420149231E-1,-7.476951599E-1,-1.031205597E0,1.426399732E0
7.418821250E0,-1.017434235E0,-1.107546844E0,-9.165440369E-1,1.761217024E0
7.428795250E0,-1.208886108E0,-1.312620392E0,-5.489085388E-1,1.866997188E0
7.438768250E0,-9.148974609E-1,-1.557062073E0,5.321434021E-1,1.882725753E0
7.448742250E0,3.772155762E-2,-2.196232910E0,2.041005707E0,2.998427289E0
7.458715250E0,7.411088562E-1,-2.899769897E0,3.100203094E0,4.309195635E0
7.468688250E0,1.889820099E0,-3.988905029E0,2.030228119E0,4.858457528E0
7.478662250E0,5.225333862E0,-5.990392914E0,-3.405418396E0,8.647878103E0
7.488635250E0,9.207951965E0,-1.053314621E1,-3.949686584E0,1.453731655E1
7.498609250E0,6.014343109E0,-1.794154037E1,5.479954376E0,1.970028157E1
7.508582250E0,7.417225800E0,-2.529859131E1,2.957549744E0,2.652887222E1
7.518556250E0,1.592807739E1,-2.949960526E1,-2.317630463E0,3.360508549E1
7.528529250E0,1.227118195E1,-2.975706985E1,-1.287622375E0,3.221370957E1
7.538503250E0,3.701502686E0,-3.344704651E1,-6.506070557E0,3.427440731E1
7.548476250E0,-2.981200562E0,-3.767201065E1,-1.514760040E1,4.071262386E1
7.558450250E0,-6.280639343E0,-3.878389847E1,-1.480601074E1,4.198636880E1
7.568423250E0,-5.106331329E0,-3.866519531E1,-7.639513550E0,3.974209501E1
7.578397250E0,-2.027234344E0,-3.652793976E1,-7.592211914E0,3.736364200E1
7.588370250E0,3.030148773E0,-3.275922684E1,-6.891369324E0,3.361308846E1
7.598343250E0,7.887547760E0,-2.782129532E1,-3.653602295E0,2.914767045E1
7.608317250E0,1.020413040E1,-2.404674454E1,-2.103276215E0,2.620675430E1
7.618290250E0,1.088296875E1,-2.036095917E1,-2.167792053E0,2.318850986E1
7.628264250E0,1.103145996E1,-1.645288605E1,-3.676354980E0,2.014711280E1
7.638237250E0,1.048689240E1,-1.295226562E1,-3.567231903E0,1.704292347E1
7.648211250E0,9.358688507E0,-9.287586365E0,-3.180286560E0,1.356313141E1
7.658184250E0,6.881489868E0,-6.068680115E0,-3.073857880E0,9.676382764E0
7.668158250E0,2.744393005E0,-4.292024689E0,-2.367177429E0,5.617534858E0
7.678131250E0,-1.709744568E0,-3.989653473E0,-1.726509705E0,4.671337826E0
7.688105250E0,-4.274361420E0,-3.672313385E0,-6.730004883E-1,5.675295658E0
7.698078250E0,-5.313949585E0,-2.884052582E0,6.363267517E-1,6.079533800E0
7.708052417E0,-5.319039001E0,-2.140848083E0,1.443747711E0,5.912682460E0
7.718025417E0,-4.649780731E0,-1.519639893E0,1.107097778E0,5.015519090E0
7.727998417E0,-3.605552216E0,-7.777825928E-1,1.411564636E-1,3.691189197E0
7.737972417E0,-2.536924438E0,-8.442443848E-2,-5.307962036E-1,2.593233060E0
7.747945417E0,-1.665137329E0,3.201841736E-1,-7.825726318E-1,1.867517109E0
7.757919417E0,-1.022823029E0,4.312532043E-1,-8.681945801E-1,1.409222517E0
7.767892417E0,-5.836363220E-1,3.879931641E-1,-8.412506104E-1,1.094930428E0
7.777866417E0,3.682342529E-2,4.656816101E-1,-1.515298920E0,1.585668989E0
7.787839417E0,2.388433228E0,1.207838287E0,-9.188492432E0,9.570364663E0
7.797813417E0,2.587968292E0,5.180726624E-1,-5.539530487E0,6.136153289E0
7.807786417E0,1.433868256E0,-4.544549561E-1,2.573747864E0,2.981054436E0
7.817760417E0,1.143472137E0,-3.857478333E-1,5.178780670E0,5.317527541E0
7.827733417E0,5.516029358E-1,-3.689826965E-1,2.965333557E0,3.038686745E0
7.837706417E0,-3.170407104E-1,-3.297642517E-1,7.732919312E-1,8.984651827E-1
7.847680417E0,-5.216651917E-1,-1.549278259E-1,-4.965174866E-1,7.366592278E-1
7.857653417E0,-9.348060608E-1,-1.073268127E-1,-2.330204315E0,2.513012846E0
7.867627417E0,-1.781146088E0,-9.639953613E-2,-4.594545593E0,4.928653311E0
7.877600417E0,-1.845512238E0,-2.653981018E-1,-3.109034729E0,3.625251511E0
7.887574417E0,-1.358425140E0,-4.534071350E-1,-5.167254639E-1,1.522465795E0
7.897547417E0,-9.731263733E-1,-5.288502502E-1,8.008346558E-1,1.366745650E0
7.907521417E0,-6.857240295E-1,-7.933502197E-1,2.219883728E-1,1.071867927E0
7.917494417E0,-3.781137085E-1,-1.110390930E0,-6.719526672E-1,1.351835190E0
7.927468417E0,-1.127156067E-1,-1.203347626E0,-1.290915527E0,1.768392834E0
7.937441417E0,-8.277786255E-2,-1.338217163E0,-2.430944824E0,2.776179045E0
7.947415417E0,-4.959187317E-1,-1.535955963E0,-3.997586975E0,4.311124880E0
7.957388417E0,-1.009201355E0,-1.582359467E0,-2.241738281E0,2.923651720E0
7.967362417E0,-7.559280396E-2,-2.220332794E0,3.028502197E0,3.755984232E0
7.977335417E0,2.464475098E0,-5.195845184E0,3.550017700E0,6.758185434E0
7.987308417E0,4.754113770E0,-5.768254852E0,4.129163361E0,8.539575624E0
7.997282417E0,7.518565063E0,-6.894363098E0,-5.111869812E-1,1.021383255E1
8.007255417E0,8.743617554E0,-1.164742905E1,-8.506809998E-1,1.458893791E1
8.017229417E0,3.000959473E0,-1.753289017E1,1.203018311E1,2.147401455E1
8.027202417E0,7.121740265E0,-4.307008530E1,6.194119263E-1,4.365930717E1
8.037176417E0,1.242206818E1,-6.360767715E1,-1.499880981E1,6.652224189E1
8.047149417E0,1.360116623E1,-4.162588852E1,-1.003632935E1,4.492698771E1
8.057123417E0,6.009403381E0,-3.589969620E1,-1.545206726E1,3.954323581E1
8.067096417E0,2.520758057E0,-3.600028702E1,-1.352677094E1,3.854021819E1
8.077070417E0,2.827021179E0,-3.124183228E1,-7.582482147E0,3.227287047E1
8.087043417E0,5.210364990E0,-2.906790298E1,-4.808151398E0,2.992004691E1
8.097017417E0,7.683372345E0,-2.651331528E1,-2.247127075E0,2.769548118E1
8.106990417E0,7.793393555E0,-2.249821472E1,-1.322200470E0,2.384648534E1
8.116964417E0,6.621929626E0,-1.851050720E1,-1.602268066E0,1.972450486E1
8.126937417E0,5.172793121E0,-1.493144989E1,-2.429897003E0,1.598781986E1
8.136910417E0,3.988905029E0,-1.167916306E1,-2.693798218E0,1.263213212E1
8.146884417E0,2.406096497E0,-9.094787292E0,-2.638263702E0,9.770613676E0
8.156857417E0,1.160087585E0,-6.959477692E0,-2.047592010E0,7.346615955E0
8.166831417E0,-3.068618774E-2,-5.370382233E0,-1.520837402E0,5.581656866E0
8.176804417E0,-1.024319916E0,-4.145928497E0,-1.034049683E0,4.393997399E0
8.186778417E0,-1.746867371E0,-3.237916718E0,-6.180647278E-1,3.730637250E0
8.196751417E0,-1.919458466E0,-2.392025757E0,-3.558100891E-1,3.087508517E0
8.206725417E0,-1.563798065E0,-1.597777405E0,-3.260220337E-1,2.259346673E0
8.216698417E0,-1.144519958E0,-7.822732544E-1,-4.640350342E-1,1.461918566E0
8.226672417E0,-8.776249695E-1,-1.929487610E-1,-4.264631653E-1,9.946485021E-1
8.236645417E0,-6.646179199E-1,2.698887634E-1,-5.830375671E-1,9.243861362E-1
8.246619417E0,-3.885919189E-1,5.391787720E-1,-8.720864868E-1,1.096472648E0
8.256592417E0,-7.454498291E-2,5.496569824E-1,-9.044192505E-1,1.060968394E0
8.266565417E0,1.688488770E-1,5.475613403E-1,-1.003513184E0,1.155583002E0
8.276539417E0,6.039939880E-1,6.641688538E-1,-1.974094849E0,2.168635395E0
8.286512417E0,2.787353668E0,1.078357544E0,-7.790250092E0,8.343871521E0
8.296486417E0,4.070036316E0,8.515791321E-1,-9.311087494E0,1.019738854E1
8.306459417E0,3.235970764E0,-1.751358032E-1,-5.707630920E0,6.563476979E0
8.316433417E0,1.076261902E0,-1.598376160E0,-4.041595459E-3,1.926956762E0
8.326406417E0,-1.865121460E-1,-1.401385803E0,5.218597870E0,5.406702570E0
8.336380417E0,2.800675964E-1,-5.830375671E-1,3.372337189E0,3.433806747E0
8.346353417E0,-4.002676392E-1,-6.035449219E-1,4.209246826E-1,8.376504307E-1
8.356327417E0,-2.022893372E0,-1.871109009E-1,6.406677246E-2,2.032538470E0
8.366300417E0,-2.470911713E0,-4.296066284E-2,3.784130859E-1,2.500089353E0
8.376273417E0,-2.317780151E0,-1.800755310E-1,2.740800476E-1,2.340865630E0
8.386247417E0,-2.074236603E0,-1.460961914E-1,-2.859054565E-2,2.079571831E0
8.396220417E0,-1.855391693E0,-5.343887329E-2,-4.763095093E-1,1.916299767E0
8.406194417E0,-1.922751617E0,1.930984497E-2,-1.039737854E0,2.185955502E0
8.416167417E0,-1.812580719E0,-9.235794067E-2,-1.018182678E0,2.081027347E0
8.426141417E0,-1.457818451E0,-1.496887207E-1,-6.589297485E-1,1.606807320E0
8.436114417E0,-5.020559692E-1,-1.034349060E-1,-4.311035156E-1,6.697829628E-1
8.446088417E0,1.689087524E0,-4.252656555E-1,1.578617249E0,2.350723284E0
8.456061417E0,3.555705872E0,-2.216889954E0,6.021977234E-1,4.233236045E0
8.466035417E0,4.352049866E0,-4.892276459E0,-4.282893677E0,7.824185915E0
8.476008417E0,4.434228973E0,-7.012317810E0,1.523681488E0,8.435436736E0
8.485982417E0,3.647015991E0,-1.001866608E1,9.076974335E0,1.400235190E1
8.495955417E0,5.062023468E0,-1.962419128E1,2.517913971E0,2.042236166E1
8.505929417E0,1.558169769E1,-4.308969452E1,-1.285017792E1,4.758821439E1
8.515902417E0,1.897424286E1,-4.497232956E1,-1.032702484E0,4.882211376E1
8.525875417E0,1.149744095E1,-3.472059814E1,-5.410049744E0,3.697268887E1
8.535849417E0,1.920057220E0,-3.838258301E1,-1.887005951E1,4.281341430E1
8.545822417E0,-2.741848297E0,-3.759252594E1,-1.296468979E1,3.985974059E1
8.555796417E0,-9.280700684E-1,-3.566124207E1,-8.181985474E0,3.659959543E1
8.565769417E0,3.100801849E0,-3.384461975E1,-6.847959595E0,3.466940739E1
8.575743417E0,7.746241608E0,-3.018697586E1,-4.539759521E0,3.149392302E1
8.585716417E0,1.055515045E1,-2.565095856E1,-2.671344910E0,2.786608978E1
8.595690417E0,1.112890732E1,-2.168196213E1,-2.977907410E0,2.455255572E1
8.605663417E0,1.052581146E1,-1.802342010E1,-3.616329803E0,2.118287564E1
8.615637417E0,9.293274536E0,-1.457593918E1,-3.823648682E0,1.770432839E1
8.625610417E0,7.035369873E0,-1.151285889E1,-3.240162048E0,1.387591435E1
8.635584417E0,3.267255707E0,-9.530381470E0,-2.538421326E0,1.038974079E1
8.645557417E0,2.195933533E-1,-8.070766754E0,-2.283800812E0,8.390544880E0
8.655531417E0,-1.181193695E0,-5.977070618E0,-2.283052368E0,6.506375322E0
8.665504417E0,-2.207609253E0,-3.781885529E0,-1.586401062E0,4.657559994E0
8.675477417E0,-3.130440216E0,-2.182162170E0,-9.848020935E-1,3.940979935E0
8.685451417E0,-3.162772980E0,-1.285676422E0,-5.683680725E-1,3.461089287E0
8.695424417E0,-2.670297089E0,-6.248007202E-1,-3.282673645E-1,2.761996007E0
8.705398750E0,-2.122286682E0,-1.422042847E-1,-1.037342834E-1,2.129573577E0
8.715371750E0,-1.629810791E0,1.857637024E-1,-3.676354980E-1,1.681055391E0
8.725345750E0,-1.155746613E0,4.891827393E-1,-6.345304871E-1,1.406299728E0
8.735318750E0,-6.515950012E-1,6.779402161E-1,-8.431965637E-1,1.262996210E0
8.745292750E0,-3.263214111E-1,7.039860535E-1,-7.936495972E-1,1.109937705E0
8.755265750E0,-1.254391479E-1,7.171586609E-1,-1.086141357E0,1.307575838E0
8.765239750E0,7.611671448E-1,1.224304047E0,-5.178331604E0,5.375259438E0
8.775212750E0,1.497336273E0,1.448687439E0,-5.666466522E0,6.037346607E0
8.785185750E0,8.029302979E-1,6.421646118E-1,1.436562653E0,1.766574286E0
8.795159750E0,1.962419128E-1,2.761756897E-1,5.786217499E0,5.796127746E0
8.805132750E0,-3.565585327E-1,3.902384949E-1,3.809877319E0,3.846373000E0
8.815106750E0,-5.882766724E-1,3.264710999E-1,1.939516754E0,2.052895044E0
8.825079750E0,-4.278103638E-1,3.905378723E-1,9.642947388E-1,1.124902609E0
8.835053750E0,-3.520678711E-1,3.680845642E-1,1.038839722E-1,5.198364281E-1
8.845026750E0,-4.343966675E-1,3.968247986E-1,-1.512604523E0,1.623004260E0
8.855000750E0,-7.688012695E-1,5.496569824E-1,-3.958518219E0,4.069772067E0
8.864973750E0,-9.569599915E-1,4.391867065E-1,-3.511547699E0,3.666009360E0
8.874947750E0,-6.788383484E-1,8.786727905E-2,-1.473685455E0,1.624897222E0
8.884920750E0,-5.487588501E-1,-2.291734314E-1,-1.417552185E-1,6.113520092E-1
8.894894750E0,-1.200802917E0,-6.710545349E-1,-2.769241333E-2,1.375866529E0
8.904867750E0,-1.446292419E0,-1.146166534E0,-5.095404053E-1,1.914442716E0
8.914841750E0,-1.292562103E0,-1.487456818E0,-1.606159973E0,2.542242009E0
8.924814750E0,-1.292562103E0,-1.788630524E0,-3.384162598E0,4.040107972E0
8.934787750E0,-1.071022797E0,-1.988165588E0,-3.148253174E0,3.874453547E0
8.944761750E0,1.251248016E0,-4.347409515E0,-3.401676178E0,5.660122959E0
8.954734750E0,4.231550446E0,-6.195167084E0,9.924362183E-1,7.567763475E0
8.964708750E0,5.191803589E0,-5.929768982E0,8.764274597E0,1.178683562E1
8.974681750E0,8.003107452E0,-7.576494598E0,2.094594269E0,1.121785739E1
8.984655750E0,1.350297043E1,-2.366189484E1,-1.130119904E1,2.949461946E1
8.994628750E0,8.287815399E0,-4.681589584E1,3.764072571E0,4.769260142E1
9.004602750E0,1.006087830E1,-4.746150330E1,6.669081573E0,4.897236176E1
9.014575750E0,1.058059753E1,-3.827316055E1,-1.316003357E1,4.183264690E1
9.024549750E0,9.627978516E-1,-3.679258942E1,-1.472248444E1,3.964054949E1
9.034522750E0,1.793420563E0,-3.452854752E1,-8.325387268E0,3.556331008E1
9.044496750E0,3.410657501E0,-3.422662537E1,-4.845423889E0,3.473575393E1
9.054469750E0,7.065157928E0,-3.273183380E1,-3.093916168E0,3.362828746E1
9.064443750E0,1.143861328E1,-2.816019058E1,-7.324269104E-1,3.040353033E1
9.074416750E0,1.350461700E1,-2.340682526E1,1.541793823E-2,2.702321940E1
9.084390750E0,1.241308685E1,-1.996158966E1,-8.393046570E-1,2.352135666E1
9.094363750E0,9.223669281E0,-1.737526794E1,-1.272952881E0,1.971284911E1
9.104336750E0,5.919590149E0,-1.417507278E1,-1.289418640E0,1.541547393E1
9.114310750E0,2.683020630E0,-1.136167328E1,-1.298100586E0,1.174611785E1
9.124283750E0,-1.330732727E-1,-9.645641785E0,-1.732347565E0,9.800874554E0
9.134257750E0,-2.164947968E0,-8.311915283E0,-1.870659943E0,8.790580413E0
9.144230750E0,-3.105292511E0,-6.693630524E0,-1.464105377E0,7.522708005E0
9.154204750E0,-3.165617065E0,-4.747078400E0,-1.171314240E0,5.824762809E0
9.164177750E0,-2.496508484E0,-2.655926971E0,-1.106499023E0,3.809310013E0
9.174151750E0,-1.768272858E0,-1.051862640E0,-1.187480621E0,2.375566067E0
9.184124750E0,-1.141825562E0,-6.122268677E-2,-1.198407898E0,1.656410372E0
9.194098750E0,-3.730242920E-1,5.348377991E-1,-1.471589813E0,1.609588510E0
9.204071750E0,8.821156311E-1,1.237626343E0,-3.583248596E0,3.892238103E0
9.214045750E0,2.240391083E0,2.011067963E0,-6.816824341E0,7.452036007E0
9.224018750E0,1.979184265E0,2.107317810E0,-5.294490051E0,6.032377940E0
9.233991750E0,3.619473267E-1,1.831142120E0,-1.147663422E0,2.191168333E0
9.243965750E0,-1.403780823E0,1.606010284E0,1.736688538E0,2.750628421E0
9.253938750E0,-2.690804443E0,1.306782532E0,2.334844666E0,3.794681640E0
9.263912750E0,-2.959196320E0,7.908055115E-1,9.162446594E-1,3.197142551E0
9.273885750E0,-2.331551514E0,-2.619552612E-2,-1.037791901E0,2.552220738E0
9.283859750E0,-1.939816132E0,-2.707868958E-1,-2.705024872E0,3.339666409E0
9.293832750E0,-1.826501770E0,-2.809657288E-1,-3.531605988E0,3.985886515E0
9.303806750E0,-1.474882965E0,-2.983296204E-1,-2.895578613E0,3.263227824E0
9.313779750E0,-9.514215088E-1,-2.885998535E-1,-1.450633392E0,1.758644365E0
9.323753750E0,-5.975573730E-1,-1.968406677E-1,-4.508624268E-1,7.740142056E-1
9.333726750E0,-5.453160095E-1,-6.481521606E-2,-2.640509033E-1,6.093385283E-1
9.343700750E0,-5.463638306E-1,8.173004150E-2,-5.912704468E-1,8.091934109E-1
9.353673750E0,-6.313870239E-1,2.234852600E-1,-7.982899475E-1,1.042047060E0
9.363646750E0,-7.473957825E-1,2.824626160E-1,-7.894583130E-1,1.123223047E0
9.373620750E0,-9.728269958E-1,3.067121887E-1,-6.156697083E-1,1.191433557E0
9.383593750E0,-1.131796417E0,2.046244812E-1,-3.700305176E-1,1.208203994E0
9.393567750E0,-1.263073425E0,-3.338058472E-2,-1.011895752E0,1.618765503E0
9.403540750E0,-6.117778015E-1,-2.380050659E-1,-7.387138367E-1,9.882391524E-1
9.413514750E0,1.694925385E0,-5.581892395E-1,1.901795197E0,2.607905722E0
9.423487750E0,2.711611176E0,-2.314037933E0,3.522175598E0,5.011319953E0
9.433461750E0,2.946323090E0,-3.360811157E0,4.690496063E0,6.478937004E0
9.443434750E0,4.062252502E0,-3.620371399E0,-1.481918335E-1,5.443431388E0
9.453408750E0,9.253756714E0,-6.183790741E0,-5.724545746E0,1.251565840E1
9.463381750E0,9.158105621E0,-1.062131287E1,5.827531586E0,1.518694538E1
9.473355750E0,5.173990631E0,-1.441352692E1,8.234526215E0,1.738756335E1
9.483328750E0,1.302037399E1,-2.719739273E1,-2.106719055E0,3.022691806E1
9.493302750E0,1.802806046E1,-5.530698853E1,-4.305197296E0,5.833016944E1
9.503275750E0,8.777447205E0,-6.152415985E1,-8.061935120E0,6.266785957E1
9.513249750E0,-6.117778015E-1,-4.170701981E1,-2.747416718E1,4.994676802E1
9.523222750E0,-3.642675018E0,-3.447001923E1,-2.390424088E1,4.210539204E1
9.533195750E0,-1.976639557E0,-3.203832596E1,-9.543404388E0,3.348787843E1
9.543169750E0,3.397784271E0,-3.043740509E1,-7.649393005E0,3.156728971E1
9.553142750E0,8.062683563E0,-2.941757584E1,-4.940625916E0,3.090000678E1
9.563116750E0,9.972561951E0,-2.628294434E1,-2.824177094E0,2.825280749E1
9.573089750E0,8.701405334E0,-2.291255310E1,-2.648143158E0,2.465181954E1
9.583063750E0,7.920628967E0,-1.916539536E1,-3.171155548E0,2.097867894E1
9.593036750E0,7.193590851E0,-1.519415359E1,-3.615880737E0,1.719548331E1
9.603010750E0,6.137536926E0,-1.141466309E1,-3.919748840E0,1.353987902E1
9.612983750E0,4.530927887E0,-8.421936493E0,-3.608545990E0,1.022154225E1
9.622957750E0,2.157912598E0,-6.372847595E0,-2.128423920E0,7.056908787E0
9.632930750E0,-2.520758057E-1,-5.260660400E0,-8.517288208E-1,5.335122496E0
9.642904750E0,-2.151625671E0,-4.505031738E0,-5.119354248E-2,4.992737202E0
9.652877750E0,-2.993025970E0,-3.852239227E0,6.195616150E-1,4.917500190E0
9.662851750E0,-2.771037598E0,-2.895129547E0,9.181906128E-1,4.111386441E0
9.672824750E0,-1.961970062E0,-1.688339081E0,5.676196289E-1,2.649907059E0
9.682797750E0,-1.237177277E0,-6.218069458E-1,-1.231938171E-1,1.390118055E0
9.692771750E0,-8.762777710E-1,1.007405090E-1,-7.120692444E-1,1.133602219E0
9.702744667E0,-5.363346863E-1,4.981640625E-1,-1.121018829E0,1.338844855E0
9.712718667E0,-2.691403198E-1,8.039781189E-1,-2.222727814E0,2.378935951E0
9.722691667E0,-2.603086853E-1,1.295256500E0,-4.997507629E0,5.169190703E0
9.732665667E0,-2.978805542E-1,1.848955078E0,-7.213649139E0,7.452791531E0
9.742638667E0,-1.875599670E-1,2.176174622E0,-6.495442657E0,6.852859990E0
9.752612667E0,-6.466552734E-2,2.599494324E0,-7.589218140E-1,2.708784726E0
9.762585667E0,-2.411485291E-1,1.924996948E0,3.393592987E0,3.908994657E0
9.772559667E0,-1.070424042E0,-6.237528992E-1,2.871628418E0,3.127479029E0
9.782532667E0,-1.536854095E0,-1.366508331E0,2.823578339E0,3.493116111E0
9.792506667E0,-1.668280792E0,-1.025218048E0,2.603984985E0,3.258062408E0
9.802479667E0,-1.424886932E0,-4.465214539E-1,1.631756744E0,2.211857647E0
9.812453667E0,-1.209933929E0,2.591111755E-1,6.629713440E-1,1.403784071E0
9.822426667E0,-1.045875092E0,8.896000671E-1,-6.900650024E-2,1.374774485E0
9.832399667E0,-9.000782776E-1,1.287023621E0,-5.059478760E-1,1.650016351E0
9.842373667E0,-5.629792786E-1,1.416354675E0,-5.074447632E-1,1.606395475E0
9.852346667E0,4.114942932E-1,7.803273010E-1,-2.501298523E-1,9.169532120E-1
9.862320667E0,1.447190552E0,-3.329077148E-1,-1.113684082E-1,1.489157803E0
9.872293667E0,1.485959930E0,-8.807684326E-1,-6.661148071E-2,1.728660474E0
9.882267667E0,1.107995911E0,-9.592053223E-1,-1.818717957E-1,1.476755612E0
9.892240667E0,6.261479187E-1,-9.147477722E-1,-6.324348450E-1,1.276243917E0
9.902214667E0,3.333567810E-1,-1.054107971E0,-1.850901031E0,2.155946425E0
9.912187667E0,4.483177185E-1,-1.163979492E0,-2.565964050E0,2.853070021E0
9.922161667E0,1.071920929E0,-1.145118713E0,-9.035211182E-1,1.810155175E0
9.932134667E0,2.491419067E0,-3.056943054E0,1.321302338E0,4.159075579E0
9.942108667E0,4.309388580E0,-5.925128632E0,2.072590027E0,7.614040232E0
9.952081667E0,6.652915192E0,-7.257507935E0,1.502425690E0,9.959416897E0
9.962055667E0,9.300758972E0,-1.310404999E1,-3.986210632E0,1.655627128E1
9.972028667E0,6.641538849E0,-2.507585449E1,-2.505789185E-1,2.594169051E1
9.982001667E0,4.551435242E0,-4.111515060E1,4.535568237E0,4.161421093E1
9.991975667E0,9.716444550E0,-4.719251266E1,-6.921307068E0,4.867696619E1
1.000194867E1,2.957549744E0,-3.665846832E1,-1.568378540E1,3.998214007E1
1.001192267E1,-4.476141815E0,-3.460608627E1,-1.380429382E1,3.752566563E1
1.002189567E1,-2.483635254E0,-3.377232010E1,-9.677076416E0,3.521908370E1
1.003186967E1,9.520202637E-1,-3.405687836E1,-4.472100220E0,3.436243569E1
1.004184267E1,4.888384552E0,-3.345288437E1,-3.594774628E0,3.399873793E1
1.005181667E1,8.580606537E0,-2.980422180E1,-3.116519165E0,3.117099834E1
1.006178967E1,9.847571869E0,-2.586890533E1,-3.102897491E0,2.785323873E1
1.007176367E1,9.892179108E0,-2.261931290E1,-3.507057037E0,2.493567670E1
1.008173667E1,1.012180161E1,-1.895089142E1,-4.390519867E0,2.192860730E1
1.009171067E1,9.803563385E0,-1.549143539E1,-5.484744415E0,1.913574788E1
1.010168367E1,8.815767517E0,-1.191192902E1,-4.625231781E0,1.552432217E1
1.011165767E1,6.769522705E0,-9.496701508E0,-3.870800629E0,1.228807856E1
1.012163067E1,3.823648682E0,-8.104446716E0,-3.064277802E0,9.470593659E0
1.013160467E1,1.008003845E0,-7.110812988E0,-2.415826263E0,7.577331301E0
1.014157767E1,-1.842967529E0,-5.736071777E0,-1.609453125E0,6.236135671E0
1.015155067E1,-3.970942383E0,-4.334236908E0,-1.552272034E-1,5.880313637E0
1.016152467E1,-4.214036865E0,-2.832110596E0,6.816824341E-1,5.122855460E0
1.017149767E1,-3.466341705E0,-1.078806610E0,4.379891968E-1,3.656662831E0
1.018147167E1,-2.364033966E0,8.232879639E-2,1.140628052E-1,2.368215562E0
1.019144467E1,-1.420845337E0,4.679269409E-1,-8.876541138E-2,1.498544758E0
1.020141867E1,-8.539741516E-1,5.489085388E-1,-3.155438232E-1,1.063080590E0
1.021139167E1,-5.650749207E-1,5.631289673E-1,-4.333488464E-1,9.078629425E-1
1.022136567E1,-4.995112610E-1,5.203179932E-1,-6.494993591E-1,9.706141001E-1
1.023133867E1,-4.857398987E-1,7.304809570E-1,-2.323019257E0,2.483135950E0
1.024131267E1,5.164260864E-2,1.773362274E0,-9.103768616E0,9.275024729E0
1.025128567E1,7.933502197E-1,2.053579559E0,-8.178692322E0,8.469805291E0
1.026125967E1,6.665638733E-1,1.343605957E0,1.990859985E-1,1.513016722E0
1.027123267E1,6.689588928E-1,8.493338013E-1,6.798113251E0,6.883546882E0
1.028120667E1,9.295669556E-1,-7.439529419E-2,4.463118896E0,4.559502129E0
1.029117967E1,3.424877930E-1,-5.013075256E-1,2.119891663E0,2.205118542E0
1.030115367E1,-6.242019653E-2,-3.579057312E-1,9.768685913E-1,1.042240394E0
1.031112667E1,-2.845582581E-1,-3.119512939E-1,4.505630493E-2,4.246375898E-1
1.032109967E1,-4.659809875E-1,-2.392025757E-1,-4.921765137E-1,7.187446512E-1
1.033107367E1,-7.686515808E-1,-1.474433899E-1,-1.447340240E0,1.645405293E0
1.034104667E1,-1.696571960E0,7.723937988E-2,-4.049229584E0,4.390966017E0
1.035102067E1,-2.322270813E0,2.796185303E-1,-4.685107269E0,5.236540688E0
1.036099367E1,-2.026485901E0,4.379891968E-1,-1.510508881E0,2.565173819E0
1.037096767E1,-9.913883972E-1,8.647517395E-1,1.632205811E0,2.096364075E0
1.038094067E1,-6.795867920E-2,9.732760620E-1,1.769021301E0,2.020227967E0
1.039091467E1,4.451742554E-1,3.824546814E-1,1.375040588E0,1.495054621E0
1.040088767E1,2.962339783E-1,-6.459068298E-1,1.506616974E0,1.665786574E0
1.041086167E1,-3.158432007E-1,-1.533111877E0,1.524729309E0,2.185174689E0
1.042083467E1,-2.052232361E-1,-2.521207123E0,-2.432441711E-1,2.541214210E0
1.043080867E1,1.496737518E0,-4.321064301E0,-3.531306610E0,5.777711161E0
1.044078167E1,4.940326538E0,-6.216123505E0,-1.231938171E0,8.035215578E0
1.045075567E1,7.293882294E0,-8.164920959E0,4.387526093E0,1.179478861E1
1.046072867E1,1.102442459E1,-1.408046951E1,-2.191891937E0,1.801671306E1
1.047070267E1,1.203766754E1,-3.386946808E1,-2.958148499E0,3.606656277E1
1.048067567E1,1.171419022E1,-5.683022095E1,4.419559479E0,5.819303026E1
1.049064967E1,1.403316788E1,-5.086332916E1,-4.048331451E0,5.291877778E1
1.050062267E1,3.635340271E0,-3.756064224E1,-1.369502106E1,4.014437876E1
1.051059567E1,-2.940934296E0,-3.782424408E1,-1.322844131E1,4.017852902E1
1.052056967E1,-1.507066040E0,-3.492941391E1,-6.640940094E0,3.558703822E1
1.053054267E1,7.047344971E-1,-3.347339172E1,-3.930227051E0,3.371069992E1
1.054051667E1,4.178111572E0,-3.024505508E1,-2.956052856E0,3.067504233E1
1.055048967E1,7.476203156E0,-2.445494568E1,-2.042203217E0,2.565362695E1
1.056046367E1,8.953032074E0,-1.969379654E1,-2.009421387E0,2.172648567E1
1.057043667E1,9.031768341E0,-1.580593140E1,-2.120640106E0,1.832750450E1
1.058041067E1,8.184380493E0,-1.254062164E1,-1.636846161E0,1.506421391E1
1.059038367E1,6.881938934E0,-1.003198837E1,-1.675615540E0,1.228045446E1
1.060035767E1,5.428461456E0,-8.001161499E0,-1.538500671E0,9.790493523E0
1.061033067E1,3.495980072E0,-6.332731018E0,-1.332978058E0,7.355419044E0
1.062030467E1,7.256909180E-1,-4.410278778E0,-1.483864288E0,4.709462754E0
1.063027767E1,-1.654210052E0,-3.240910492E0,-1.891167297E0,4.100783518E0
1.064025167E1,-2.716101837E0,-2.620301056E0,-1.937720490E0,4.242398792E0
1.065022467E1,-2.536325684E0,-1.771715698E0,-1.318607941E0,3.363131188E0
1.066019867E1,-2.247127075E0,-9.145980835E-1,-5.490582275E-1,2.487475564E0
1.067017167E1,-2.046843567E0,-2.612068176E-1,7.484436035E-3,2.063456713E0
1.068014467E1,-1.728156281E0,1.113684082E-1,-2.288740540E-1,1.746800041E0
1.069011867E1,-1.353335724E0,3.667373657E-1,-5.760021973E-1,1.515847093E0
1.070009167E1,-1.126707001E0,4.538562012E-1,-7.578739929E-1,1.431721728E0
1.071006575E1,-1.043929138E0,4.144880676E-1,-9.243278503E-1,1.454637542E0
1.072003875E1,-9.231303406E-1,5.936654663E-1,-2.075134735E0,2.347507717E0
1.073001275E1,-7.038363647E-1,1.448388062E0,-8.162226562E0,8.319564656E0
1.073998575E1,-8.834628296E-1,1.498533783E0,-6.571783905E0,6.798121341E0
1.074995975E1,-7.385641479E-1,5.342390442E-1,1.135388947E0,1.456020747E0
1.075993275E1,-1.676513672E-1,-1.901046753E-2,6.492897949E0,6.495089850E0
1.076990675E1,-6.774911499E-1,-3.903881836E-1,4.052073669E0,4.126826652E0
1.077987975E1,-1.260379028E0,-6.487509155E-1,1.537602539E0,2.091328433E0
1.078985375E1,-1.038091278E0,-4.409829712E-1,3.821553040E-1,1.190857741E0
1.079982675E1,-7.186555481E-1,-2.406994629E-1,-6.426136780E-1,9.936570673E-1
1.080980075E1,-3.680845642E-1,1.899549866E-1,-1.364861755E0,1.426329820E0
1.081977375E1,-1.826202393E-2,6.441105652E-1,-1.069825287E0,1.248894738E0
1.082974775E1,3.532653809E-1,7.351213074E-1,-3.692820740E-1,8.953038680E-1
1.083972075E1,6.451583862E-1,4.906796265E-1,-1.308279419E-1,8.210431106E-1
1.084969375E1,6.948550415E-1,-2.558180237E-1,-2.086660767E-1,7.692905313E-1
1.085966775E1,7.566764832E-1,-1.251547394E0,-2.213896179E-1,1.479169883E0
1.086964075E1,7.373666382E-1,-1.719474335E0,-5.056484985E-1,1.938035591E0
1.087961475E1,7.044351196E-1,-1.788031769E0,-2.656974792E-1,1.940072575E0
1.088958775E1,1.147064667E0,-2.241887970E0,3.876937866E-1,2.547964971E0
1.089956175E1,1.920655975E0,-4.228706360E0,-5.528004456E-1,4.677228366E0
1.090953475E1,3.917802887E0,-4.918022919E0,9.580078125E-1,6.360338659E0
1.091950875E1,6.503525848E0,-5.987848206E0,8.653504944E-1,8.882511248E0
1.092948175E1,9.207353210E0,-8.681945801E0,-1.004411316E0,1.269489575E1
1.093945575E1,6.073919220E0,-1.606474319E1,5.691913605E0,1.809326806E1
1.094942875E1,7.307803345E-1,-3.670292587E1,7.394922180E0,3.744761249E1
1.095940275E1,1.029154861E1,-5.351371765E1,-5.754483490E0,5.479733598E1
1.096937575E1,1.652144348E1,-4.437342499E1,-1.742930557E1,5.045532313E1
1.097934975E1,3.963308258E0,-4.006568298E1,-1.730042358E1,4.382090165E1
1.098932275E1,-9.714797974E-2,-3.885395279E1,-1.319146820E1,4.103235209E1
1.099929675E1,3.424877930E-1,-3.652240128E1,-8.087980957E0,3.740880282E1
1.100926975E1,2.158062286E0,-3.346006943E1,-5.132377167E0,3.392012344E1
1.101924375E1,5.212460632E0,-2.933868988E1,-3.722010040E0,3.002968246E1
1.102921675E1,7.718249817E0,-2.440659622E1,-1.772763519E0,2.565922855E1
1.103918975E1,8.865314484E0,-1.988884094E1,-1.121168518E0,2.180405498E1
1.104916375E1,9.923014984E0,-1.641082352E1,-1.871707764E0,1.926874788E1
1.105913675E1,9.935738525E0,-1.319865326E1,-2.221230927E0,1.666904960E1
1.106911075E1,8.571026459E0,-1.001642075E1,-2.648143158E0,1.344633189E1
1.107908375E1,5.833219757E0,-7.765102386E0,-3.291654968E0,1.025467017E1
1.108905775E1,2.501597900E0,-6.300997009E0,-2.577041016E0,7.252702652E0
1.109903075E1,-1.857637024E-1,-4.688699799E0,-4.264631653E-1,4.711717817E0
1.110900475E1,-2.889591064E0,-3.678300934E0,9.252259827E-1,4.768194354E0
1.111897775E1,-3.851790161E0,-3.028202820E0,5.715115356E-1,4.932841493E0
1.112895175E1,-3.394790497E0,-2.086361389E0,4.180805969E-1,4.006531885E0
1.113892475E1,-2.716401215E0,-1.005459137E0,2.285746765E-1,2.905517169E0
1.114889875E1,-2.127525787E0,-2.341131592E-1,-2.378553772E-1,2.153543621E0
1.115887175E1,-1.676214294E0,2.386038208E-1,-6.851252747E-1,1.826478247E0
1.116884575E1,-1.267414398E0,5.225633240E-1,-8.650511169E-1,1.621025947E0
1.117881875E1,-1.092877350E0,6.021977234E-1,-8.994795227E-1,1.538208832E0
1.118879275E1,-1.072669373E0,6.222560120E-1,-9.845027161E-1,1.583372264E0
1.119876575E1,-1.268611908E0,9.389973450E-1,-2.613714752E0,3.053292811E0
1.120873875E1,-1.634151764E0,1.579066315E0,-6.521787872E0,6.906346318E0
1.121871275E1,-1.216370544E0,1.680854645E0,-4.358037415E0,4.826729715E0
1.122868575E1,-1.197509766E-3,1.384021912E0,1.497186584E0,2.038893267E0
1.123865975E1,9.945318604E-1,1.094074860E0,4.826563110E0,5.047950562E0
1.124863275E1,9.617500305E-1,7.039860535E-1,2.797382812E0,3.040708813E0
1.125860675E1,3.887416077E-1,2.842588806E-1,5.170248413E-1,7.065676438E-1
1.126857975E1,-1.933978271E-1,2.484832764E-2,-2.694396973E-1,3.325927080E-1
1.127855375E1,-4.692741394E-1,1.556762695E-2,-8.261320496E-1,9.502393026E-1
1.128852675E1,-5.722599792E-1,9.175918579E-2,-1.115630035E0,1.257191953E0
1.129850075E1,-4.968168640E-1,1.872605896E-1,-8.512797546E-1,1.003279994E0
1.130847375E1,-5.454656982E-1,2.131567383E-1,-4.093986511E-1,7.145459247E-1
1.131844775E1,-6.518943787E-1,1.020877075E-1,-4.014651489E-1,7.723745508E-1
1.132842075E1,-6.123765564E-1,-2.329156494E-1,-6.379733276E-1,9.144751026E-1
1.133839475E1,-4.046086121E-1,-6.737489319E-1,-7.659571838E-1,1.097422507E0
1.134836775E1,2.754272461E-2,-9.759704590E-1,-8.750802612E-1,1.311122573E0
1.135834175E1,2.993774414E-2,-1.037791901E0,-8.637039185E-1,1.350515737E0
1.136831475E1,-3.778143311E-1,-1.103804626E0,-5.117857361E-1,1.273990958E0
1.137828775E1,1.887574768E-1,-2.891237640E0,-9.569599915E-1,3.051336904E0
1.138826175E1,1.930236053E0,-5.138364716E0,-6.824308777E-1,5.531212803E0
1.139823475E1,3.896547089E0,-6.068680115E0,1.838327179E0,7.442540182E0
1.140820875E1,6.249653778E0,-7.763904877E0,8.408015442E-1,1.000216669E1
1.141818175E1,1.175430679E1,-1.418749695E1,-6.024222565E0,1.938401546E1
1.142815575E1,1.119177658E1,-3.367592056E1,-8.098159790E-2,3.548704055E1
1.143812875E1,7.191495209E0,-6.460101151E1,-1.323697357E0,6.501354063E1
1.144810275E1,1.543859528E1,-5.269432159E1,-1.277428574E1,5.637574060E1
1.145807575E1,1.094029953E1,-3.399251221E1,-1.112067444E1,3.740120907E1
1.146804975E1,3.378025360E0,-3.437406876E1,-5.760770416E0,3.501676933E1
1.147802275E1,3.460204468E0,-3.051853638E1,-4.442611542E0,3.103370546E1
1.148799675E1,4.370611267E0,-2.891402298E1,-3.761527863E0,2.948342008E1
1.149796975E1,6.398294678E0,-2.718646545E1,-3.392545166E0,2.813452401E1
1.150794375E1,8.262518005E0,-2.338332413E1,-2.427501984E0,2.491870416E1
1.151791675E1,8.487200775E0,-1.983420456E1,-2.355651398E0,2.170201237E1
1.152789075E1,7.965535583E0,-1.639884842E1,-2.384541321E0,1.838635429E1
1.153786375E1,7.125183105E0,-1.325568466E1,-2.002086639E0,1.518188925E1
1.154783775E1,5.861061859E0,-1.044842239E1,-2.426603851E0,1.222333763E1
1.155781075E1,4.581223297E0,-7.868986359E0,-2.515369263E0,9.446461546E0
1.156778475E1,3.257525940E0,-6.030359802E0,-2.510130157E0,7.299141593E0
1.157775775E1,1.409169617E0,-4.473148041E0,-1.807191925E0,5.026007865E0
1.158773075E1,-7.345225525E-1,-3.327729950E0,-1.150657196E0,3.596848896E0
1.159770475E1,-1.999541931E0,-2.516566772E0,-4.954696655E-2,3.214612132E0
1.160767775E1,-2.182012482E0,-1.528172150E0,8.192463684E-1,2.787050987E0
1.161765175E1,-2.031425629E0,-6.207591248E-1,6.596781921E-1,2.224231843E0
1.162762475E1,-1.580563202E0,5.149291992E-2,-6.900650024E-2,1.582906647E0
1.163759875E1,-1.124012604E0,5.294490051E-1,-6.180647278E-1,1.387704792E0
1.164757175E1,-9.349557495E-1,7.473957825E-1,-7.375163269E-1,1.405942048E0
1.165754575E1,-1.050515442E0,6.881190491E-1,-8.069718933E-1,1.492747184E0
1.166751875E1,-1.107995911E0,6.258485413E-1,-8.818162537E-1,1.548205813E0
1.167749275E1,-1.043629761E0,7.969427490E-1,-2.059866486E0,2.442812060E0
1.168746575E1,-8.975335693E-1,1.703457642E0,-7.924969940E0,8.155518561E0
1.169743975E1,-8.684939575E-1,1.495090942E0,-4.278403015E0,4.614575933E0
1.170741213E1,-5.586383057E-1,7.135661316E-1,1.803599396E0,2.018470748E0
1.171738613E1,-1.463955688E-1,4.808001709E-1,3.152294769E0,3.192109456E0
1.172735913E1,-5.239105225E-2,4.028123474E-1,2.752326508E0,2.782140150E0
1.173733313E1,-3.186872864E-1,3.131488037E-1,1.771416321E0,1.826893413E0
1.174730613E1,-1.012195129E0,1.992356873E-1,5.492079163E-1,1.168701491E0
1.175727913E1,-1.478325806E0,7.020401001E-2,-7.779322815E-1,1.671991156E0
1.176725313E1,-2.425705719E0,-2.213896179E-1,-3.901786194E0,4.599673586E0
1.177722613E1,-2.915636902E0,-5.218148804E-1,-4.724026337E0,5.575809730E0
1.178720013E1,-2.797233124E0,-5.897735596E-1,-3.484154663E0,4.506848091E0
1.179717313E1,-2.513423309E0,-5.800437927E-1,-2.642754364E0,3.692952499E0
1.180714713E1,-2.150577850E0,-4.053570557E-1,-2.481240234E0,3.308451682E0
1.181712013E1,-1.567540283E0,-2.326162720E-1,-2.222278748E0,2.729435052E0
1.182709412E1,-8.476872253E-1,-1.965412903E-1,-1.377285919E0,1.629146591E0
1.183706713E1,-1.577719116E-1,-4.147874451E-1,7.330256653E-1,8.568939413E-1
1.184704113E1,1.522633667E0,-9.798623657E-1,2.600093079E0,3.168442450E0
1.185701412E1,3.409160614E0,-2.801274719E0,1.085243225E-1,4.413761851E0
1.186698813E1,5.547913055E0,-5.118755493E0,-5.293292542E0,9.219541366E0
1.187696113E1,8.246201935E0,-8.536598053E0,-4.684508514E0,1.276001460E1
1.188693512E1,7.162754974E0,-1.347048798E1,1.121617584E0,1.529761848E1
1.189690813E1,3.007845154E0,-2.179527649E1,2.479743347E0,2.214114579E1
1.190688213E1,2.893782349E0,-4.554189514E1,-7.112758942E0,4.618473264E1
1.191685512E1,1.078671890E1,-5.968957489E1,-1.308623703E1,6.205198027E1
1.192682913E1,1.422581726E1,-3.748804321E1,-3.989204407E0,4.029442905E1
1.193680213E1,7.401059418E0,-3.363026550E1,-1.758393402E0,3.447988378E1
1.194677612E1,4.648134155E0,-3.599100632E1,-3.774550781E0,3.648568103E1
1.195674913E1,5.886958008E0,-3.273303131E1,-4.735252991E0,3.359360407E1
1.196672213E1,7.365433502E0,-3.102792709E1,-3.153941345E0,3.204573632E1
1.197669612E1,8.704997864E0,-2.794344131E1,-3.514691162E0,2.947822848E1
1.198666913E1,9.749675446E0,-2.355696304E1,-3.736529846E0,2.576719493E1
1.199664313E1,9.787546692E0,-1.945025299E1,-3.053350525E0,2.198707259E1
1.200661612E1,9.126221924E0,-1.599124603E1,-2.982248383E0,1.865212271E1
1.201659013E1,8.247998199E0,-1.297412018E1,-3.079096985E0,1.567922533E1
1.202656313E1,6.730603638E0,-1.040127045E1,-2.629432068E0,1.266496606E1
1.203653713E1,4.763843536E0,-8.564140778E0,-2.324216766E0,1.007177721E1
1.204651013E1,2.743794250E0,-7.342231750E0,-1.693278809E0,8.018975439E0
1.205648413E1,8.550219727E-1,-5.645959167E0,-1.152154083E0,5.825407842E0
1.206645713E1,-5.963598633E-1,-3.568130035E0,-7.496411133E-1,3.694476801E0
1.207643113E1,-1.615141296E0,-2.094444580E0,-9.639953613E-2,2.646634160E0
1.208640412E1,-2.494861908E0,-1.116977234E0,6.186634827E-1,2.802627086E0
1.209637813E1,-3.193159790E0,-3.683839417E-1,7.041357422E-1,3.290559727E0
1.210635113E1,-3.080743561E0,1.782792664E-1,5.216651917E-1,3.129680328E0
1.211632512E1,-2.563569031E0,5.730084229E-1,1.863624573E-1,2.633430423E0
1.212629813E1,-2.099833374E0,6.824308777E-1,-2.918930054E-1,2.227153706E0
1.213627213E1,-1.826052704E0,6.996450806E-1,-8.321195984E-1,2.125181108E0
1.214624512E1,-1.625170441E0,1.016685791E0,-3.666325836E0,4.137242330E0
1.215621913E1,-1.769919434E0,2.074386292E0,-1.013257919E1,1.049308603E1
1.216619213E1,-1.833237762E0,1.969903564E0,-5.637576599E0,6.246883276E0
1.217616512E1,-1.237476654E0,1.502575378E0,1.957329712E0,2.760474749E0
1.218613913E1,1.242416382E-2,1.087488556E0,4.557722168E0,4.685682136E0
1.219611213E1,2.409988403E-1,2.040257263E-1,2.207758942E0,2.230225657E0
1.220608612E1,-2.402503967E-1,-3.206332397E-1,7.111711121E-1,8.162660585E-1
1.221605913E1,-3.992198181E-1,-3.640429688E-1,1.501377869E-1,5.607540471E-1
1.222603313E1,-7.702981567E-1,-2.604583740E-2,-9.280700684E-2,7.763058524E-1
1.223600612E1,-1.030606842E0,4.453239441E-1,-4.201762390E-1,1.198754333E0
1.224598013E1,-1.064735870E0,8.027806091E-1,-8.231382751E-1,1.567059603E0
1.225595313E1,-8.333171082E-1,8.794212341E-1,-8.852590942E-1,1.500494177E0
1.226592713E1,-1.113684082E-1,6.866221619E-1,-3.725752258E-1,7.890913853E-1
1.227590013E1,7.125183105E-1,3.507206726E-1,2.888992310E-2,7.946835601E-1
1.228587413E1,9.476792908E-1,-2.558180237E-1,-2.148033142E-1,1.004828027E0
1.229584713E1,9.651928711E-1,-1.101858673E0,-6.246510315E-1,1.592444261E0
1.230582113E1,7.161108398E-1,-1.753154297E0,-7.593708801E-1,2.040345279E0
1.231579413E1,1.484912109E-1,-2.011816406E0,-1.115929413E0,2.305374882E0
1.232576813E1,-1.231938171E-1,-2.725981293E0,-9.541159058E-1,2.890759050E0
1.233574113E1,7.982899475E-1,-4.718787231E0,-2.060165863E0,5.210422551E0
1.234571512E1,2.804418182E0,-6.743626556E0,-2.351011047E0,7.672581926E0
1.235568813E1,3.326382751E0,-7.286397858E0,4.309837646E0,9.095664708E0
1.236566113E1,3.711531830E0,-7.277566223E0,4.907694397E0,9.530157551E0
1.237563512E1,6.134543152E0,-1.095407089E1,-2.551444244E0,1.281148534E1
1.238560813E1,5.340444489E0,-2.195783844E1,-1.791474609E0,2.266884200E1
1.239558213E1,5.950875092E0,-4.721032562E1,-2.312091980E0,4.764004124E1
1.240555512E1,5.660029907E0,-6.430328064E1,-1.412343018E1,6.607888558E1
1.241552913E1,1.117575989E1,-4.511677917E1,-1.350117416E1,4.840147804E1
1.242550213E1,9.953551483E0,-3.490127243E1,-7.020700378E0,3.696569001E1
1.243547612E1,5.260361023E0,-3.315141129E1,-5.042863312E0,3.394286285E1
1.244544913E1,6.916666718E0,-2.945260300E1,-5.793103180E0,3.080350867E1
1.245542313E1,8.888067169E0,-2.689202774E1,-3.927832031E0,2.859382378E1
1.246539612E1,1.019335281E1,-2.442665451E1,-3.231929169E0,2.666479436E1
1.247537013E1,1.046009811E1,-2.083562210E1,-3.590583344E0,2.358874922E1
1.248534313E1,9.729916534E0,-1.683099976E1,-3.460354156E0,1.974659159E1
1.249531712E1,8.249794464E0,-1.303070251E1,-3.094514923E0,1.573004575E1
1.250529013E1,5.937852173E0,-9.686955872E0,-2.420765991E0,1.161702675E1
1.251526413E1,2.884202271E0,-7.390132141E0,-2.335892487E0,8.269768407E0
1.252523712E1,-1.426533508E-1,-6.440656586E0,-1.942510529E0,6.728726060E0
1.253521113E1,-2.224374390E0,-5.370082855E0,-7.563771057E-1,5.861547374E0
1.254518413E1,-3.379971313E0,-3.812122650E0,2.604583740E-1,5.101404095E0
1.255515813E1,-3.416794739E0,-2.467618561E0,9.846524048E-1,4.328182991E0
1.256513113E1,-3.133433990E0,-1.652563477E0,1.218765564E0,3.746300057E0
1.257510513E1,-2.789299622E0,-8.928932190E-1,9.738748169E-1,3.086402896E0
1.258507813E1,-2.297422485E0,-2.656974792E-1,2.481838989E-1,2.326013859E0
1.259505213E1,-1.739233246E0,1.639091492E-1,-4.270619202E-1,1.798382711E0
1.260502513E1,-1.260528717E0,4.481680298E-1,-7.117698669E-1,1.515388918E0
1.261499913E1,-8.827143860E-1,6.204597473E-1,-8.538244629E-1,1.375925579E0
1.262497213E1,-5.677693176E-1,6.378236389E-1,-8.779243469E-1,1.224717172E0
1.263494612E1,-3.589535522E-1,6.096821594E-1,-9.349557495E-1,1.172476969E0
1.264491913E1,-5.673202515E-2,1.012045441E0,-3.848796387E0,3.980036196E0
1.265489213E1,1.124162292E-1,1.735790405E0,-7.722441101E0,7.915914495E0
1.266486612E1,-1.092727661E-1,1.227746887E0,-2.049537964E0,2.391633087E0
1.267483913E1,1.236428833E-1,5.767506409E-1,2.782264252E0,2.844103238E0
1.268481313E1,2.909948730E-1,4.275109863E-1,3.918701019E0,3.952677743E0
1.269478612E1,-2.570155334E-1,3.719764709E-1,1.911375275E0,1.964122939E0
1.270476067E1,-7.083270264E-1,1.287322998E-1,3.697311401E-1,8.093208865E-1
1.271473367E1,-5.939648438E-1,6.212081909E-2,-3.400927734E-1,6.872527383E-1
1.272470767E1,-5.492079163E-1,7.813751221E-2,-7.652087402E-1,9.451344995E-1
1.273468067E1,-5.890251160E-1,1.207987976E-1,-1.134790192E0,1.284247529E0
1.274465467E1,-5.761518860E-1,1.049317932E-1,-2.151625671E0,2.229900156E0
1.275462767E1,-6.075865173E-1,-8.337661743E-2,-5.442083130E0,5.476530090E0
1.276460167E1,-3.508703613E-1,-5.236111450E-1,-6.572682037E0,6.602834831E0
1.277457467E1,5.373825073E-2,-7.604187012E-1,-4.266577606E0,4.334144537E0
1.278454867E1,3.562591553E-2,-5.650749207E-1,-1.368154907E0,1.480684545E0
1.279452167E1,-6.608757019E-1,-6.337820435E-1,-5.815406799E-1,1.084723898E0
1.280449567E1,4.318519592E-1,-1.858235779E0,-1.454225922E0,2.398814156E0
1.281446867E1,2.683320007E0,-4.440815277E0,-7.990383911E-1,5.249715129E0
1.282444267E1,3.338657227E0,-6.205196228E0,2.228266296E0,7.390281659E0
1.283441567E1,3.590433655E0,-7.251071320E0,2.552641754E0,8.484410942E0
1.284438967E1,4.316124573E0,-1.303414536E1,-5.682632904E0,1.485968348E1
1.285436267E1,4.174069977E0,-3.043396225E1,-1.046024780E1,3.245097383E1
1.286433667E1,3.650159454E0,-5.294744522E1,2.491718445E0,5.313157517E1
1.287430967E1,-1.289268951E0,-6.029521545E1,-2.356549530E0,6.035502089E1
1.288428367E1,6.097869415E0,-4.632626404E1,-1.097787140E1,4.799812925E1
1.289425667E1,1.313458649E1,-3.445400253E1,-6.851252747E-1,3.687905977E1
1.290422967E1,9.201066284E0,-2.964360580E1,-1.084794159E0,3.105768446E1
1.291420367E1,9.369915161E0,-2.676554077E1,-2.589165802E0,2.847618764E1
1.292417667E1,9.403295746E0,-2.462364487E1,-3.984713745E-1,2.636104393E1
1.293415067E1,8.657097473E0,-2.205872864E1,-7.162605286E-1,2.370750672E1
1.294412367E1,7.206763458E0,-1.960009140E1,-1.118623810E0,2.091297066E1
1.295409767E1,5.774242401E0,-1.689162369E1,-8.764274597E-1,1.787279920E1
1.296407067E1,4.812492371E0,-1.394949188E1,-8.556207275E-1,1.478108566E1
1.297404467E1,3.115471344E0,-1.112561417E1,-1.323248291E0,1.162912027E1
1.298401767E1,1.099613342E0,-9.173673248E0,-1.950593719E0,9.442999853E0
1.299399167E1,-3.372486877E-1,-7.934400330E0,-1.917662201E0,8.169814783E0
1.300396467E1,-1.025218048E0,-6.497538300E0,-1.548529816E0,6.757737831E0
1.301393867E1,-1.271006927E0,-4.719086609E0,-1.178050232E0,5.027229792E0
1.302391167E1,-9.041198730E-1,-3.088976440E0,-6.192622375E-1,3.277604905E0
1.303388567E1,-6.827302551E-1,-1.531165924E0,-1.390608215E-1,1.682238865E0
1.304385867E1,-6.569837952E-1,-2.784210205E-1,-4.700225830E-2,7.150910320E-1
1.305383267E1,-5.601351929E-1,3.796105957E-1,-3.360511780E-1,7.555038272E-1
1.306380567E1,-3.138972473E-1,6.388714600E-1,-8.190966797E-1,1.085176297E0
1.307377967E1,-5.538482666E-3,7.741900635E-1,-1.428778839E0,1.625056891E0
1.308375267E1,5.336402893E-1,1.392853546E0,-5.284011841E0,5.490500350E0
1.309372667E1,1.021475830E0,2.103725281E0,-9.784403229E0,1.006000097E1
1.310369967E1,3.689826965E-1,1.862427063E0,-5.871989136E0,6.171307739E0
1.311367367E1,-7.102729797E-1,1.365460510E0,1.756297760E0,2.335284122E0
1.312364667E1,-1.855541382E0,5.710624695E-1,3.708088989E0,4.185578827E0
1.313361967E1,-1.904639282E0,-4.941224670E-1,2.220632172E0,2.966987538E0
1.314359367E1,-1.118773499E0,-6.252497864E-1,1.981130219E0,2.359548342E0
1.315356667E1,-1.229692841E0,-4.816983032E-1,1.441352692E0,1.954910566E0
1.316354067E1,-1.116977234E0,-3.752696228E-1,6.307882690E-1,1.336547519E0
1.317351367E1,-1.013841705E0,-2.411485291E-1,-3.077600098E-1,1.086620375E0
1.318348767E1,-1.118773499E0,-2.010319519E-1,-1.091081085E0,1.575603351E0
1.319346067E1,-1.179846497E0,-1.748364258E-1,-1.372645569E0,1.818450271E0
1.320343467E1,-9.961784363E-1,-9.580078125E-2,-1.081351318E0,1.473387234E0
1.321340767E1,-6.322851562E-1,-1.299298096E-1,-6.704557800E-1,9.306864280E-1
1.322338167E1,-3.409909058E-1,-3.817062378E-1,-5.161267090E-1,7.268846054E-1
1.323335467E1,-4.188290405E-1,-8.584648132E-1,-4.945715332E-1,1.075630328E0
1.324332867E1,-3.376977539E-1,-1.388662262E0,-3.902384949E-1,1.481454938E0
1.325330167E1,-1.032852173E-2,-1.775008850E0,-3.821553040E-1,1.815710817E0
1.326327567E1,5.971083069E-1,-1.781445465E0,-3.890409851E-1,1.918707681E0
1.327324867E1,1.866768036E0,-2.457140350E0,-7.819738770E-1,3.183370030E0
1.328322267E1,4.106560364E0,-4.428989868E0,-2.415227509E0,6.504853049E0
1.329319567E1,7.786058807E0,-6.848857727E0,-4.138144684E0,1.116484686E1
1.330316967E1,1.116977234E1,-1.202105209E1,-5.468727722E0,1.729671907E1
1.331314267E1,1.050365753E1,-2.126702499E1,-2.160756683E0,2.381768341E1
1.332311667E1,7.527396698E0,-3.196108658E1,2.989134064E0,3.297131600E1
1.333308967E1,1.094479019E1,-4.412628891E1,-3.174448700E0,4.557405984E1
1.334306367E1,1.074989548E1,-4.688505203E1,-8.500373383E0,4.884695184E1
1.335303667E1,-6.575825500E-1,-3.527968552E1,-7.113806763E0,3.599576186E1
1.336301067E1,-3.389252014E0,-3.371199554E1,-5.440436554E0,3.431594415E1
1.337298367E1,-1.288670197E0,-3.351156235E1,-2.223775635E0,3.360997858E1
1.338295767E1,1.268162842E0,-3.178041229E1,-9.262738037E-1,3.181918958E1
1.339293067E1,5.104834442E0,-2.822784988E1,-3.104544067E-1,2.868740535E1
1.340290367E1,8.110733643E0,-2.334500381E1,-1.780547333E0,2.477788434E1
1.341287767E1,9.250313873E0,-1.911135773E1,-3.274291077E0,2.148332570E1
1.342285067E1,1.020353165E1,-1.543200897E1,-3.172053680E0,1.877021267E1
1.343282467E1,1.047596512E1,-1.226624222E1,-3.386557617E0,1.648257613E1
1.344279767E1,9.667646027E0,-1.006477020E1,-4.683011627E0,1.472051551E1
1.345277167E1,8.243357849E0,-7.915090485E0,-5.587730255E0,1.272101943E1
1.346274467E1,5.582640839E0,-6.585704956E0,-4.927153931E0,9.940534913E0
1.347271867E1,1.994901581E0,-5.765710144E0,-3.700005798E0,7.135340825E0
1.348269167E1,-1.416204987E0,-4.943769379E0,-2.336640930E0,5.648573543E0
1.349266567E1,-2.762655029E0,-3.918850708E0,-6.035449219E-1,4.832589384E0
1.350263867E1,-3.148702240E0,-2.943778381E0,1.072819061E0,4.441970024E0
1.351261267E1,-3.637735291E0,-2.257754974E0,1.593885498E0,4.568484054E0
1.352258567E1,-4.044439545E0,-1.392554169E0,9.026229858E-1,4.371661766E0
1.353255967E1,-4.194577332E0,-5.159770203E-1,6.724017334E-1,4.279349877E0
1.354253267E1,-3.923191681E0,7.484436035E-3,4.095483398E-1,3.944517566E0
1.355250667E1,-3.487447815E0,1.300794983E-1,-1.202000427E-1,3.491942294E0
1.356247967E1,-2.800077209E0,2.050735474E-1,-5.212161255E-1,2.855547896E0
1.357245367E1,-1.667831726E0,5.761518860E-1,-2.915636902E0,3.408012941E0
1.358242667E1,-6.807843018E-1,1.409169617E0,-8.842711487E0,8.980132110E0
1.359240067E1,-3.510200500E-1,1.144370270E0,-2.302212524E-1,1.218934049E0
1.360237367E1,4.929249573E-1,1.010698242E0,4.666096802E0,4.799681793E0
1.361234767E1,6.340814209E-1,3.004252625E-1,2.347268829E0,2.449895007E0
1.362232067E1,9.190887451E-2,-3.465293884E-1,1.004710693E0,1.066758377E0
1.363229367E1,-2.686912537E-1,-5.162763977E-1,3.454815674E-1,6.768262864E-1
1.364226767E1,-3.180885315E-1,-4.399351501E-1,-3.623963928E-1,6.527284242E-1
1.365224067E1,-4.324507141E-1,-3.483256531E-1,-8.270301819E-1,9.961542564E-1
1.366221467E1,-5.974076843E-1,-6.451583862E-2,-1.113684082E0,1.265444771E0
1.367218767E1,-5.647755432E-1,3.144960022E-1,-1.788331146E0,1.901580248E0
1.368216167E1,-2.692900085E-1,3.372486877E-1,-2.075733490E0,2.120123418E0
1.369213467E1,1.163081360E-1,2.386038208E-1,-3.360511780E-1,4.282403064E-1
1.370210867E1,1.922003174E-1,1.836680603E-1,1.332229614E-2,2.661811450E-1
1.371208188E1,-1.573228455E-1,-2.118095398E-1,-8.942404175E-1,9.323516950E-1
1.372205587E1,-5.201683044E-1,-9.425898743E-1,-1.101559296E0,1.540286862E0
1.373202888E1,-4.191284180E-1,-1.348395996E0,-4.197271729E-1,1.473095819E0
1.374200288E1,6.932084656E-1,-1.694027252E0,-3.562591553E-1,1.864721667E0
1.375197587E1,2.909799042E0,-3.177891541E0,-1.527124329E0,4.571436735E0
1.376194988E1,5.762416992E0,-5.890700226E0,-2.561323700E0,8.629378763E0
1.377192288E1,8.812923431E0,-1.005144791E1,-3.119662628E0,1.372703607E1
1.378189688E1,1.098251175E1,-1.817385727E1,-5.059927826E0,2.182905225E1
1.379186988E1,7.635172577E0,-3.362397858E1,-5.092410278E0,3.485398741E1
1.380184388E1,2.544857941E0,-5.419480133E1,-9.039552155E0,5.500242082E1
1.381181688E1,9.088500366E0,-4.770250214E1,-8.979227600E0,4.938376330E1
1.382179088E1,7.097341003E0,-3.261043625E1,-6.395749969E0,3.398114800E1
1.383176388E1,-5.682183838E-1,-3.215972351E1,-5.403762817E0,3.261550768E1
1.384173788E1,-2.481838989E-1,-3.118749527E1,-1.119821320E0,3.120857985E1
1.385171088E1,1.152004395E0,-3.198443802E1,-1.906136169E0,3.206188929E1
1.386168487E1,2.108515320E0,-3.070819199E1,-1.371298370E0,3.081102645E1
1.387165788E1,4.617597656E0,-2.549767731E1,-1.481768646E0,2.595475668E1
1.388163188E1,7.513026581E0,-2.117466705E1,-3.450923767E0,2.273149727E1
1.389160487E1,9.179062042E0,-1.707529175E1,-3.629502411E0,1.972293224E1
1.390157788E1,9.722432098E0,-1.333082840E1,-3.855981445E0,1.694418085E1
1.391155188E1,1.027119095E1,-1.030936157E1,-3.984264679E0,1.508822934E1
1.392152487E1,9.780960388E0,-7.984995117E0,-4.173471222E0,1.329831550E1
1.393149888E1,7.319628754E0,-6.277346191E0,-3.897445221E0,1.040058265E1
1.394147188E1,3.747307434E0,-4.682562561E0,-3.074905701E0,6.739714401E0
1.395144587E1,6.945556641E-2,-3.612886963E0,-1.711391144E0,3.998329142E0
1.396141888E1,-2.056573334E0,-3.303480377E0,-4.870870972E-1,3.921699927E0
1.397139288E1,-2.886447601E0,-2.687960358E0,8.044271851E-1,4.025396097E0
1.398136587E1,-3.490740967E0,-1.782642975E0,1.416654053E0,4.167732858E0
1.399133988E1,-3.517086182E0,-7.138655090E-1,1.139131165E0,3.765251517E0
1.400131288E1,-3.242856445E0,1.155596924E-1,1.036145325E0,3.406327803E0
1.401128688E1,-3.142265625E0,5.114863586E-1,9.683363342E-1,3.327630810E0
1.402125988E1,-2.933150482E0,6.674620056E-1,4.020639038E-1,3.034885939E0
1.403123388E1,-2.612816620E0,6.444099426E-1,6.032455444E-2,2.691786380E0
1.404120688E1,-2.032323761E0,6.207591248E-1,4.206253052E-2,2.125429608E0
1.405118088E1,-1.268611908E0,5.529501343E-1,1.441502380E-1,1.391369583E0
1.406115388E1,-5.186714172E-1,5.495072937E-1,1.002914429E-2,7.556976172E-1
1.407112788E1,3.246748352E-1,8.318202209E-1,-1.489253082E0,1.736436976E0
1.408110088E1,6.321354675E-1,1.017733612E0,-1.028511200E0,1.578990894E0
1.409107487E1,4.879852295E-1,8.304730225E-1,1.931134186E0,2.158030183E0
1.410104788E1,1.468446350E-1,4.918771362E-1,1.745669861E0,1.819579547E0
1.411102188E1,-6.743476868E-1,-4.056564331E-2,3.553610229E-1,7.633294379E-1
1.412099487E1,-1.374441833E0,-3.597019958E-1,-4.599934387E-1,1.493341837E0
1.413096888E1,-1.766775970E0,-6.069877625E-1,-1.421444092E0,2.347431528E0
1.414094188E1,-2.175426178E0,-8.577163696E-1,-2.261048126E0,3.252767292E0
1.415091487E1,-2.305355988E0,-1.044976959E0,-2.338736572E0,3.446205425E0
1.416088888E1,-2.069596252E0,-1.122216339E0,-2.222278748E0,3.237455944E0
1.417086188E1,-1.643881531E0,-1.050365753E0,-2.671793976E0,3.308186475E0
1.418083587E1,-9.436376953E-1,-8.515791321E-1,-3.071313171E0,3.323944000E0
1.419080888E1,-2.395019531E-3,-7.247927856E-1,-2.345472565E0,2.454907711E0
1.420078288E1,1.097218323E0,-5.236111450E-1,7.942483521E-1,1.452200786E0
1.421075587E1,3.191962280E0,-6.099815369E-1,2.312091980E0,3.988291614E0
1.422072988E1,5.882916412E0,-2.946622467E0,-1.541644135E0,6.757807049E0
1.423070288E1,8.220305786E0,-4.725822601E0,-1.026864624E0,9.537362184E0
1.424067687E1,7.150330811E0,-6.338568878E0,4.539609833E0,1.057888196E1
1.425064988E1,5.495522003E0,-1.021041733E1,3.415746918E0,1.208804000E1
1.426062388E1,4.870870972E0,-2.622471542E1,1.407972107E0,2.671036257E1
1.427059687E1,7.028783569E0,-6.166247223E1,-2.052980804E0,6.209572457E1
1.428057088E1,1.506497223E1,-6.127867035E1,-7.925269318E0,6.359904655E1
1.429054388E1,1.117935242E1,-4.129821991E1,-1.117082016E1,4.421886601E1
1.430051788E1,2.385888519E0,-3.748684570E1,-8.639284515E0,3.854339505E1
1.431049088E1,3.470832367E0,-3.172742249E1,-5.592520294E0,3.240296743E1
1.432046488E1,4.334685974E0,-2.889920380E1,-4.294719086E0,2.953638594E1
1.433043788E1,6.912924500E0,-2.665447174E1,-1.915566559E0,2.760287637E1
1.434041188E1,7.821385345E0,-2.321043365E1,-1.114731903E0,2.451817543E1
1.435038488E1,8.122259674E0,-1.938019867E1,-1.634151764E0,2.107685116E1
1.436035888E1,7.150181122E0,-1.572300385E1,-2.111808472E0,1.740108258E1
1.437033188E1,5.858367462E0,-1.271920029E1,-2.945125580E0,1.430986687E1
1.438030587E1,4.593497772E0,-1.004561005E1,-3.663182373E0,1.163758601E1
1.439027888E1,2.827619934E0,-7.701634369E0,-3.581452332E0,8.951949913E0
1.440025288E1,8.391549683E-1,-5.693709869E0,-3.273392944E0,6.620997999E0
1.441022587E1,-8.129594421E-1,-4.269421692E0,-2.767145691E0,5.152277158E0
1.442019888E1,-2.332599335E0,-3.303181000E0,-1.549727325E0,4.330551831E0
1.443017288E1,-3.211122437E0,-2.698139191E0,-9.228309631E-1,4.294517363E0
1.444014587E1,-3.295546875E0,-1.777254181E0,-4.767585754E-1,3.774461600E0
1.445011988E1,-2.845133514E0,-9.231303406E-1,-2.643502808E-1,3.002804591E0
1.446009288E1,-2.146087189E0,-1.781295776E-1,-3.438349915E-1,2.180743651E0
1.447006687E1,-1.553319855E0,3.546125793E-1,-6.804849243E-1,1.732516200E0
1.448003988E1,-8.719367981E-1,7.249424744E-1,-1.234782257E0,1.676455366E0
1.449001388E1,-4.041595459E-1,9.662406921E-1,-2.476749573E0,2.689099191E0
1.449998687E1,-2.031275940E-1,1.352287903E0,-5.071902924E0,5.253012722E0
1.450996088E1,-1.939965820E-1,1.614841919E0,-5.773194580E0,5.997926705E0
1.451993388E1,-2.412982178E-1,1.453776855E0,-1.706750793E0,2.254925774E0
1.452990787E1,8.143066406E-2,1.464853821E0,4.582570496E0,4.811692012E0
1.453988088E1,2.332150269E-1,9.446855164E-1,5.120701447E0,5.212331847E0
1.454985488E1,-2.062710571E-1,-3.460803223E-1,2.551294556E0,2.582909841E0
1.455982787E1,-5.429209900E-1,-7.920030212E-1,1.591789856E0,1.858985458E0
1.456980188E1,-5.676196289E-1,-7.324269104E-1,1.018781433E0,1.377155340E0
1.457977488E1,-5.483097839E-1,-6.685098267E-1,1.652563477E-1,8.802605682E-1
1.458974888E1,-6.373745728E-1,-4.321513367E-1,-6.664141846E-1,1.018385482E0
1.459972188E1,-6.402186584E-1,-5.882766724E-2,-1.324745178E0,1.472511600E0
1.460969588E1,-4.710704041E-1,-3.802093506E-2,-1.857936401E0,1.917102133E0
1.461966888E1,-1.704954529E-1,-6.975494385E-2,-2.199226685E0,2.206928287E0
1.462964288E1,1.721420288E-2,-4.730163574E-2,-2.552492065E0,2.552988350E0
1.463961588E1,2.041754150E-1,-1.016386414E-1,-2.359992371E0,2.370987559E0
1.464958988E1,5.140310669E-1,-1.826202393E-1,-1.438658295E0,1.538608390E0
1.465956288E1,9.601034546E-1,-2.606080627E-1,-4.700225830E-1,1.100289250E0
1.466953588E1,1.569635925E0,-9.714797974E-2,4.755610657E-1,1.642970783E0
1.467950988E1,2.268382874E0,-2.237846375E-1,1.254990234E0,2.602045525E0
1.468948288E1,3.645369415E0,-2.398013306E0,-5.023553467E-1,4.392214348E0
1.469945687E1,5.875731354E0,-4.467010803E0,-3.264860687E0,8.070794246E0
1.470942963E1,7.064110107E0,-7.969876556E0,-2.243684235E0,1.088368976E1
1.471940363E1,5.612279205E0,-1.652054535E1,-7.458988953E-1,1.746374707E1
1.472937663E1,2.350561981E0,-3.518822571E1,1.535806274E-1,3.526698112E1
1.473935063E1,8.270601196E0,-5.813475815E1,-2.747087402E0,5.878434688E1
1.474932363E1,1.693203964E1,-5.382342361E1,-1.044363235E1,5.738226514E1
1.475929763E1,7.139553223E0,-3.561917953E1,-9.843230896E0,3.763759245E1
1.476927063E1,3.908971252E0,-3.144989960E1,-3.938310242E0,3.193566233E1
1.477924463E1,4.608616333E0,-2.943643661E1,-2.836002502E0,2.992968519E1
1.478921763E1,4.252955933E0,-2.981305344E1,-2.709066467E0,3.023648178E1
1.479919162E1,5.283712463E0,-2.864069138E1,-2.308200073E0,2.921531460E1
1.480916463E1,6.771917725E0,-2.508767990E1,-2.196382599E0,2.607824091E1
1.481913863E1,7.973768463E0,-2.110476242E1,-2.156565399E0,2.266368802E1
1.482911162E1,8.200247498E0,-1.746837433E1,-2.376458130E0,1.944314054E1
1.483908563E1,7.347021790E0,-1.401086426E1,-2.535427551E0,1.602221705E1
1.484905863E1,6.459517365E0,-1.073792038E1,-2.464624786E0,1.277116573E1
1.485903262E1,5.322332153E0,-7.894732819E0,-2.511327667E0,9.846867140E0
1.486900563E1,3.399430847E0,-6.117029572E0,-2.685565338E0,7.495761606E0
1.487897963E1,1.028361511E0,-5.326074371E0,-2.209106140E0,5.857025315E0
1.488895262E1,-1.112336884E0,-4.402345276E0,-1.240171051E0,4.707011951E0
1.489892663E1,-2.730172577E0,-3.299588470E0,-6.942562866E-1,4.338561762E0
1.490889963E1,-3.609593811E0,-2.343227234E0,-4.261637878E-1,4.324522739E0
1.491887362E1,-3.807631989E0,-1.443747711E0,-8.143066406E-1,4.152777880E0
1.492884663E1,-3.465293884E0,-6.315367126E-1,-1.682501221E0,3.903576652E0
1.493882063E1,-2.689457245E0,4.370910645E-2,-2.355651398E0,3.575497765E0
1.494879362E1,-1.819017334E0,6.816824341E-1,-3.076252899E0,3.638247779E0
1.495876763E1,-1.249302063E0,1.219214630E0,-4.284689941E0,4.626641098E0
1.496874063E1,-1.314865723E0,1.522184601E0,-5.148693237E0,5.527654103E0
1.497871463E1,-1.532363434E0,1.469194794E0,-3.787723389E0,4.342063968E0
1.498868763E1,-1.283880157E0,1.184636536E0,-6.839277649E-1,1.876024831E0
1.499866063E1,-6.015989685E-1,7.664062500E-1,2.049537964E0,2.269340372E0
1.500863463E1,1.716929626E-1,2.254312134E-1,2.842738495E0,2.856826886E0
1.501860763E1,4.873864746E-1,-2.035766602E-1,1.790576477E0,1.866856489E0
1.502858163E1,4.053570557E-1,-4.772076416E-1,4.228706360E-1,7.555534730E-1
1.503855463E1,2.821632385E-1,-5.532495117E-1,-6.421646118E-1,8.933512770E-1
1.504852863E1,3.080593872E-1,-5.514532471E-1,-1.162482605E0,1.323014390E0
1.505850163E1,2.649490356E-2,-4.357438660E-1,-9.532177734E-1,1.048426831E0
1.506847563E1,-5.219645691E-1,-2.830613708E-1,-6.783892822E-1,9.015446574E-1
1.507844863E1,-6.930587769E-1,-2.041754150E-1,-6.186634827E-1,9.511900825E-1
1.508842262E1,-6.743476868E-1,7.813751221E-2,-4.586462402E-1,8.192720227E-1
1.509839563E1,-6.348298645E-1,4.700225830E-1,-3.135978699E-1,8.498669363E-1
1.510836963E1,-6.110293579E-1,6.768923950E-1,-4.667294312E-1,1.024390820E0
1.511834262E1,-5.345384216E-1,3.210823059E-1,-9.394464111E-1,1.127556975E0
1.512831663E1,-7.479945374E-1,-4.537065125E-1,-5.992039490E-1,1.060372953E0
1.513828963E1,-8.866062927E-1,-1.406774597E0,6.828799438E-1,1.797612445E0
1.514826362E1,1.707948303E-1,-3.404220886E0,5.539979553E-1,3.453231016E0
1.515823663E1,2.374811554E0,-5.295537872E0,-1.374441833E0,5.964188262E0
1.516821063E1,5.892346802E0,-8.617579651E0,-4.352199554E0,1.131035237E1
1.517818362E1,8.763077087E0,-1.421638687E1,-5.810766449E0,1.768225615E1
1.518815763E1,7.803572388E0,-2.360501312E1,-3.821553040E0,2.515346207E1
1.519813063E1,3.057392120E0,-3.909031128E1,4.965174866E-1,3.921283734E1
1.520810462E1,7.110663300E0,-4.450649826E1,1.313368835E0,4.509007494E1
1.521807763E1,1.119057907E1,-3.613740189E1,-2.871179352E0,3.793922174E1
1.522805163E1,1.855541382E0,-3.228201920E1,-6.698570251E0,3.302185096E1
1.523802462E1,2.185155945E0,-3.293556015E1,-5.202880554E0,3.341550531E1
1.524799863E1,6.198310547E0,-3.338417725E1,-2.751428375E0,3.406600508E1
1.525797163E1,7.604486389E0,-3.180900284E1,-2.801873474E0,3.282516367E1
1.526794563E1,9.328750763E0,-2.747581375E1,-3.063529358E0,2.917757948E1
1.527791863E1,1.027538223E1,-2.337733658E1,-3.465892639E0,2.577005544E1
1.528789263E1,1.078447357E1,-1.979827927E1,-3.443888397E0,2.280651441E1
1.529786563E1,1.026340714E1,-1.643716873E1,-3.480562134E0,1.968838121E1
1.530783963E1,8.738079071E0,-1.380414413E1,-3.606600037E0,1.673068991E1
1.531781263E1,6.441854095E0,-1.173290131E1,-3.033591614E0,1.372447213E1
1.532778663E1,3.279979248E0,-9.940678253E0,-2.060016174E0,1.066859947E1
1.533775963E1,3.091072083E-1,-8.199648743E0,-1.219064941E0,8.295535311E0
1.534773263E1,-1.368753662E0,-6.131699066E0,-1.204245758E0,6.396985843E0
1.535770663E1,-2.421514435E0,-4.193080444E0,-5.117857361E-1,4.869043069E0
1.536767963E1,-3.184926910E0,-2.939138031E0,7.542814636E-1,4.399003559E0
1.537765362E1,-3.508404236E0,-2.000140686E0,1.035696259E0,4.169188145E0
1.538762663E1,-3.419788513E0,-1.029259644E0,4.147874451E-1,3.595327178E0
1.539760063E1,-2.926115112E0,-2.272274780E-1,-3.173400879E-2,2.935096084E0
1.540757362E1,-2.230361938E0,2.350112915E-1,-2.770738220E-1,2.259759852E0
1.541754763E1,-1.851799164E0,5.101391602E-1,-2.981799316E-1,1.943788409E0
1.542752063E1,-1.633702698E0,6.758445740E-1,-3.606001282E-1,1.804378798E0
1.543749462E1,-1.501377869E0,7.294331360E-1,-6.812333679E-1,1.802855265E0
1.544746763E1,-1.388063507E0,6.798861694E-1,-9.375004578E-1,1.807725812E0
1.545744163E1,-1.100511475E0,8.475375366E-1,-2.185754700E0,2.589781649E0
1.546741462E1,-2.890489197E-1,1.375040588E0,-5.491181030E0,5.668099770E0
1.547738863E1,6.319857788E-1,1.099463654E0,-3.307971039E0,3.542724763E0
1.548736163E1,8.991801453E-1,5.047503662E-1,1.742376709E-1,1.045780394E0
1.549733562E1,5.373825073E-1,3.291654968E-1,1.886676636E0,1.989140169E0
1.550730863E1,-1.275347900E-1,4.043092346E-1,1.720522156E0,1.771984077E0
1.551728263E1,-8.777746582E-1,4.607418823E-1,5.096900940E-1,1.114699702E0
1.552725562E1,-1.335373077E0,1.568737793E-1,-7.911048889E-1,1.560024866E0
1.553722963E1,-1.250798950E0,-5.837860107E-2,-1.457219696E0,1.921300424E0
1.554720263E1,-9.952803040E-1,-6.062393188E-2,-1.118474121E0,1.498413329E0
1.555717663E1,-6.704557800E-1,-9.729766846E-3,-4.302053833E-1,7.966695006E-1
1.556714963E1,-3.311114502E-1,-9.250762939E-2,-1.176553345E-1,3.633665253E-1
1.557712363E1,9.205856323E-2,-4.246669006E-1,2.466870117E-1,4.996711292E-1
1.558709663E1,4.864883423E-1,-7.315287781E-1,9.157955933E-1,1.269049577E0
1.559707063E1,5.101391602E-1,-1.452279968E0,9.430389404E-1,1.805181850E0
1.560704363E1,1.099014587E0,-2.462379456E0,4.730163574E-2,2.696921039E0
1.561701763E1,2.706970825E0,-2.885699158E0,-8.759783936E-1,4.052442328E0
1.562699063E1,4.511767731E0,-3.513793030E0,-6.988966370E-1,5.761184429E0
1.563696462E1,5.501359863E0,-5.078040161E0,9.867480469E-1,7.551498125E0
1.564693763E1,5.711073761E0,-8.047415314E0,1.734293518E0,1.001923304E1
1.565691163E1,4.750371552E0,-1.556059158E1,3.390599213E0,1.661909153E1
1.566688462E1,6.145171051E0,-4.335314667E1,6.135740662E-1,4.379080870E1
1.567685863E1,8.263266449E0,-7.282281418E1,-1.174981613E1,7.422601981E1
1.568683163E1,1.192570038E1,-5.131658661E1,-1.398257309E1,5.450804290E1
1.569680562E1,7.422764282E0,-3.545961136E1,-8.378377075E0,3.718438745E1
1.570677863E1,3.643872528E0,-3.224564484E1,-5.011728058E0,3.283560318E1
1.571675200E1,5.148393860E0,-2.797831879E1,-4.024231567E0,2.873128471E1
1.572672500E1,6.977290649E0,-2.645658325E1,-2.783461761E0,2.750238247E1
1.573669800E1,7.623197479E0,-2.601694748E1,-1.622476044E0,2.715929168E1
1.574667200E1,7.526498566E0,-2.354274261E1,-1.181343384E0,2.474478698E1
1.575664500E1,7.548203430E0,-1.981100281E1,-2.046095123E0,2.129877256E1
1.576661900E1,7.813451843E0,-1.558798462E1,-3.063080292E0,1.770360853E1
1.577659200E1,7.379354553E0,-1.142095001E1,-3.833677826E0,1.412763457E1
1.578656600E1,6.322402496E0,-8.070467377E0,-4.809049530E0,1.132396461E1
1.579653900E1,4.115092621E0,-5.351671143E0,-4.443359985E0,8.081944027E0
1.580651300E1,7.538323975E-1,-3.312162323E0,-3.606600037E0,4.954416854E0
1.581648600E1,-1.432221680E0,-2.660118256E0,-3.666924591E0,4.751191854E0
1.582646000E1,-2.900668030E0,-2.337988129E0,-2.492167511E0,4.482294325E0
1.583643300E1,-4.186194763E0,-1.953138428E0,-7.348219299E-1,4.677492874E0
1.584640700E1,-5.025349731E0,-1.567390594E0,8.985813904E-1,5.340252963E0
1.585638000E1,-4.645739136E0,-9.213340759E-1,1.168021088E0,4.878116630E0
1.586635400E1,-3.313808899E0,-2.013313293E-1,2.504292297E-1,3.329351066E0
1.587632700E1,-1.779499512E0,3.520678711E-1,-8.146060181E-1,1.988505284E0
1.588630100E1,-3.721261597E-1,7.969427490E-1,-1.507515106E0,1.745335904E0
1.589627400E1,9.511221313E-1,1.233135681E0,-3.194057922E0,3.553486025E0
1.590624800E1,1.676214294E0,1.473086700E0,-2.060315552E0,3.037199197E0
1.591622100E1,1.818568268E0,1.301992493E0,2.254162445E0,3.175472142E0
1.592619500E1,1.761686554E0,1.049317932E0,3.633843384E0,4.172460350E0
1.593616800E1,1.510359192E0,8.283773804E-1,2.551893311E0,3.078888345E0
1.594614200E1,1.213975525E0,6.150709534E-1,1.398392029E0,1.951294216E0
1.595611500E1,9.090596008E-1,4.447251892E-1,6.005511475E-1,1.176788652E0
1.596608900E1,4.314028931E-1,1.701960754E-1,2.080673218E-2,4.642284786E-1
1.597606200E1,-5.059478760E-2,-4.805007935E-2,-4.963677979E-1,5.012480757E-1
1.598603600E1,-4.161346436E-1,-1.086740112E-1,-1.787283325E0,1.838303502E0
1.599600900E1,-7.084767151E-1,-1.556762695E-1,-3.680995331E0,3.751786372E0
1.600598300E1,-8.409512329E-1,-1.625619507E-1,-3.686533813E0,3.784726796E0
1.601595600E1,-9.744735718E-1,6.316864014E-2,-2.565065918E0,2.744658846E0
1.602593000E1,-1.252744904E0,4.132905579E-1,-1.995200958E0,2.391862400E0
1.603590300E1,-1.666185150E0,4.459226990E-1,-2.649939423E0,3.161834744E0
1.604587700E1,-1.994602203E0,9.804611206E-2,-2.985092468E0,3.591493844E0
1.605585000E1,-2.026934967E0,-3.287164307E-1,-2.556533661E0,3.279082831E0
1.606582400E1,-1.404978333E0,-7.710466003E-1,-5.601351929E-1,1.697712699E0
1.607579700E1,6.406677246E-2,-1.342707825E0,3.142864380E0,3.418269352E0
1.608577100E1,1.211430817E0,-3.228636017E0,4.378395081E0,5.573329224E0
1.609574400E1,2.100132751E0,-3.407813416E0,2.326462097E0,4.629921785E0
1.610571800E1,4.320166168E0,-4.430935822E0,-2.160457306E0,6.554739030E0
1.611569100E1,8.914562073E0,-1.036309982E1,-5.261857910E0,1.464753916E1
1.612566400E1,1.003168900E1,-2.335069199E1,2.907254333E0,2.558010415E1
1.613563800E1,7.561825104E0,-4.926480331E1,2.110161896E0,4.988641927E1
1.614561100E1,1.222507782E1,-5.366864548E1,-8.810977478E0,5.574414193E1
1.615558500E1,1.656994263E1,-3.677043549E1,-5.613027649E0,4.072019160E1
1.616555800E1,4.608316956E0,-3.601405838E1,-6.878346405E0,3.695349287E1
1.617553200E1,-3.900888062E-1,-3.305590988E1,-1.028690826E1,3.462175370E1
1.618550500E1,-1.385967865E0,-3.160557587E1,-6.745572510E0,3.234711859E1
1.619547900E1,5.110372925E-1,-3.218636810E1,-4.087849274E0,3.244894393E1
1.620545200E1,3.395389252E0,-2.943329315E1,-3.685336304E0,2.985681024E1
1.621542600E1,6.308930511E0,-2.433190155E1,-2.044598236E0,2.521952456E1
1.622539900E1,8.252339172E0,-1.966311035E1,-1.447639618E0,2.137369109E1
1.623537300E1,8.806337128E0,-1.617401596E1,-2.025288391E0,1.852706558E1
1.624534600E1,7.701035614E0,-1.319042038E1,-2.185455322E0,1.542949624E1
1.625532000E1,5.993087311E0,-1.045470932E1,-2.383194122E0,1.228404073E1
1.626529300E1,4.283043365E0,-8.424181824E0,-2.537523193E0,9.785209442E0
1.627526700E1,2.310595093E0,-6.758296051E0,-2.413431244E0,7.539102438E0
1.628524000E1,4.942721558E-1,-5.210065613E0,-2.537672882E0,5.816259306E0
1.629521400E1,-1.016685791E0,-3.864663391E0,-2.612367554E0,4.774278727E0
1.630518700E1,-2.056723022E0,-2.625091095E0,-2.117646332E0,3.950397301E0
1.631516100E1,-2.526296539E0,-1.566791840E0,-1.422940979E0,3.295720240E0
1.632513400E1,-2.086810455E0,-6.545887756E-1,-1.553020477E0,2.682375243E0
1.633510800E1,-1.668729858E0,1.640588379E-1,-2.077529755E0,2.669776119E0
1.634508100E1,-1.361269226E0,6.825805664E-1,-1.947599945E0,2.472269338E0
1.635505500E1,-9.710307312E-1,8.273295593E-1,-1.319356384E0,1.835231906E0
