"Time (s)","Acceleration x (m/s^2)","Acceleration y (m/s^2)","Acceleration z (m/s^2)","Absolute acceleration (m/s^2)"
8.353458368E-3,-4.158652039E0,1.419647827E0,5.215903473E0,6.820222560E0
1.832745830E-2,-2.384990387E0,1.979184265E0,4.877756653E0,5.779088117E0
2.830045833E-2,-9.213340759E-1,1.512903900E0,2.451452179E0,3.024459039E0
3.827445838E-2,-2.894979858E-1,8.795709229E-1,8.858578491E-1,1.281482821E0
4.824845830E-2,3.592529297E-2,4.805007935E-1,3.418890381E-1,5.908127906E-1
5.822145834E-2,-5.360353088E-1,1.780397644E0,2.366578674E-1,1.874341636E0
6.819545839E-2,-2.812950439E0,6.848708038E0,-6.078858948E-1,7.428796486E0
7.816845831E-2,-1.163680115E0,4.007316742E0,-3.975732422E-1,4.191754211E0
8.814245835E-2,1.725910950E-1,2.948867798E-1,-1.901046753E-2,3.422094342E-1
9.811645839E-2,8.502319336E-2,1.893562317E-1,2.454895020E-2,2.090152551E-1
1.080894583E-1,7.768844604E-2,1.919009399E-1,6.032455444E-2,2.156397859E-1
1.180634584E-1,1.062789917E-1,2.149530029E-1,-3.891906738E-2,2.429294370E-1
1.280374584E-1,2.062710571E-1,2.740800476E-1,-3.106040955E-1,4.627553626E-1
1.380104583E-1,1.901046753E-1,8.493338013E-1,-1.971101074E0,2.154703492E0
1.479844584E-1,-4.519102478E-1,2.259251862E0,-3.812122650E0,4.454292418E0
1.579584583E-1,-1.044827271E-1,2.208657074E0,-1.589694214E0,2.723272003E0
1.679314583E-1,8.526269531E-1,1.447190552E0,6.759942627E-1,1.810608035E0
1.779054584E-1,9.312135315E-1,1.298250275E0,1.233285370E0,2.018317423E0
1.878794583E-1,5.848338318E-1,9.379495239E-1,6.153703308E-1,1.265093105E0
1.978524583E-1,2.591111755E-1,8.349636841E-1,1.034349060E-1,8.803418284E-1
2.078264584E-1,1.363664246E-1,8.470884705E-1,6.481521606E-2,8.604392429E-1
2.178004583E-1,1.591191101E-1,7.614665222E-1,-1.143621826E-1,7.862753109E-1
2.277734583E-1,2.920426941E-1,6.414161682E-1,-1.207688599E0,1.398290166E0
2.377474584E-1,2.829116821E-2,4.224215698E-1,-3.078198853E0,3.107176942E0
2.477204583E-1,-6.219566345E-1,5.987548828E-4,-3.407364349E0,3.463663122E0
2.576944584E-1,-1.657054138E-1,-1.173110504E0,-2.085912323E0,2.398890735E0
2.676684584E-1,5.569917297E-1,-1.796713715E0,-5.815406799E-1,1.968910745E0
2.776414583E-1,7.366181946E-1,-1.872905273E0,2.262844391E0,3.028340348E0
2.876154584E-1,9.702822876E-1,-2.647544403E0,2.942880249E0,4.075718740E0
2.975894584E-1,2.067650299E0,-5.437891846E0,-4.352498932E0,7.265679076E0
3.075624583E-1,2.286644897E0,-9.962532806E0,-8.681796112E0,1.341098015E1
3.175364584E-1,3.005300446E0,-1.406265656E1,-2.534379730E0,1.460182252E1
3.275104583E-1,5.151387634E0,-1.831935471E1,-1.856738892E0,1.912022570E1
3.374834583E-1,8.717272339E0,-2.929483109E1,-1.168036057E1,3.272015874E1
3.474574584E-1,1.185459824E1,-7.239590195E1,-9.117390289E0,7.392445417E1
3.574314583E-1,-1.247505798E0,-8.816725525E1,-1.590592346E0,8.819042552E1
3.674044583E-1,-6.931336212E0,-5.557927231E1,-1.074016571E0,5.602010749E1
3.773784584E-1,4.911735992E0,-3.520229645E1,-2.736309814E-1,3.554436242E1
3.873514583E-1,1.024484573E1,-2.766082901E1,-1.185085602E0,2.952088673E1
3.973254584E-1,7.527546387E0,-2.099728592E1,-7.012916565E-1,2.231684970E1
4.072994584E-1,4.284689941E0,-1.695359482E1,-1.709445190E0,1.757000706E1
4.172724583E-1,2.462080078E0,-1.536225403E1,-3.643573151E0,1.597924630E1
4.272464584E-1,2.611619110E0,-1.349877914E1,-4.908442841E0,1.459898640E1
4.372204584E-1,3.240910492E0,-1.117276611E1,-5.254672852E0,1.276502214E1
4.471934583E-1,3.272644501E0,-9.014254761E0,-5.086722107E0,1.085549320E1
4.571674584E-1,2.920426941E0,-7.204518127E0,-4.268673248E0,8.868796213E0
4.671414583E-1,2.215243378E0,-5.561534729E0,-3.259172516E0,6.816170278E0
4.771144583E-1,1.014739838E0,-4.453089752E0,-2.827619934E0,5.371698034E0
4.870884584E-1,-1.291813660E-1,-3.257825317E0,-2.243235168E0,3.957551976E0
4.970617084E-1,-9.204359436E-1,-1.758692780E0,-1.668131104E0,2.592848626E0
5.070347084E-1,-1.517843628E0,-6.161187744E-1,-1.196461945E0,2.028539575E0
5.170087083E-1,-1.697021027E0,3.092568970E-1,-9.119036865E-1,1.951176191E0
5.269827084E-1,-1.656006317E0,9.645941162E-1,-7.222480774E-1,2.048033451E0
5.369557084E-1,-1.386117554E0,1.263372803E0,-8.744815063E-1,2.069335791E0
5.469297083E-1,-9.105564880E-1,1.465751953E0,-1.664239197E0,2.397338944E0
5.569027084E-1,-5.330415344E-1,1.753303986E0,-3.206482086E0,3.693201255E0
5.668767083E-1,-1.001417542E0,2.253264313E0,-3.758234711E0,4.494926617E0
5.768507083E-1,-1.656006317E0,2.670297089E0,-1.603764954E0,3.527733761E0
5.868237084E-1,-1.589095459E0,2.047891388E0,1.187330933E0,2.851111758E0
5.967977083E-1,-1.378034363E0,1.213975525E-1,2.455643463E0,2.818492663E0
6.067717083E-1,-1.197809143E0,-9.274713135E-1,1.782642975E0,2.339394314E0
6.167447084E-1,-9.033714294E-1,-1.118174744E0,8.708889771E-1,1.680726720E0
6.267187083E-1,-4.595443726E-1,-1.136436768E0,5.837860107E-2,1.227223540E0
6.366927084E-1,-3.221301270E-1,-1.009051666E0,-1.041384430E0,1.485407222E0
6.466657084E-1,-6.182144165E-2,-6.620732117E-1,-1.596579895E0,1.729517328E0
6.566397083E-1,3.275189209E-1,-1.065783691E-1,-6.741979980E-1,7.570802685E-1
6.666137084E-1,6.935078430E-1,3.365002441E-1,3.314108276E-1,8.390582097E-1
6.765867084E-1,7.685018921E-1,3.023712158E-1,4.471202087E-1,9.391166016E-1
6.865607083E-1,6.864724731E-1,-7.858657837E-2,1.851649475E-1,7.153365393E-1
6.965347084E-1,6.580316162E-1,-3.960763550E-1,1.871109009E-1,7.905014713E-1
7.065077083E-1,6.704557800E-1,-6.128256226E-1,2.210902405E-1,9.348513738E-1
7.164817083E-1,7.084767151E-1,-1.160686340E0,-4.272116089E-1,1.425356726E0
7.264547084E-1,4.625381470E-1,-1.900148621E0,-2.107018433E0,2.874723116E0
7.364287083E-1,-1.571731567E-1,-2.652633820E0,-3.455863495E0,4.359376340E0
7.464027083E-1,3.697311401E-2,-4.466711426E0,-3.296744385E0,5.551702578E0
7.563757084E-1,1.319206696E0,-7.173382874E0,7.963439941E-2,7.294111995E0
7.663497083E-1,2.025737457E0,-8.456065521E0,6.525679779E0,1.087166744E1
7.763237084E-1,2.966231689E0,-9.251661072E0,7.869884491E0,1.250307342E1
7.862967084E-1,3.224295044E0,-1.184606598E1,1.724713440E0,1.239758017E1
7.962707083E-1,1.915716248E0,-1.863415009E1,-1.360969849E0,1.878173999E1
8.062447084E-1,1.522633667E0,-2.889875473E1,8.550219727E-1,2.895146803E1
8.162177084E-1,4.695286102E0,-3.418725723E1,-5.595364380E-1,3.451271287E1
8.261917083E-1,1.093356354E1,-2.932581665E1,-6.023474121E0,3.187206574E1
8.361657084E-1,1.326840820E1,-2.978191818E1,-7.131470032E0,3.337470856E1
8.461387084E-1,1.086081482E1,-3.362936737E1,-8.518635406E0,3.635187474E1
8.561127083E-1,6.395899658E0,-3.400673264E1,-1.036175262E1,3.612106469E1
8.660867084E-1,8.529263306E-1,-3.361634445E1,-9.681417389E0,3.499308418E1
8.760597083E-1,-2.401007080E0,-3.266073166E1,-6.878645782E0,3.346347255E1
8.860337083E-1,-1.901495819E0,-2.945245331E1,-3.273093567E0,2.969471053E1
8.960077084E-1,-7.682025146E-1,-2.569811050E1,-5.466632080E-1,2.571540121E1
9.059807083E-1,1.372645569E-1,-2.209405518E1,5.510041809E-1,2.210135112E1
9.159547084E-1,8.884025574E-1,-1.832040253E1,3.481759644E-1,1.834523465E1
9.259277084E-1,2.146685944E0,-1.504446487E1,-1.580712891E-1,1.519766990E1
9.359017083E-1,2.610421600E0,-1.292307632E1,-1.286724243E0,1.324673023E1
9.458757084E-1,2.151475983E0,-1.117620895E1,-2.192790070E0,1.159072145E1
9.558487084E-1,1.604663086E0,-1.042252625E1,-2.749332733E0,1.089783591E1
9.658227083E-1,1.080153809E0,-1.005264542E1,-2.804567871E0,1.049228350E1
9.757967084E-1,8.960366821E-1,-8.662635956E0,-2.548450470E0,9.074069828E0
9.857697084E-1,1.354832611E0,-6.522087250E0,-2.128573608E0,6.993140861E0
9.957437083E-1,2.036365356E0,-4.355343018E0,-2.069147186E0,5.234230291E0
1.005717708E0,2.274969177E0,-2.107916565E0,-2.435884552E0,3.943644324E0
1.015690708E0,2.189646606E0,-6.032455444E-2,-2.636916504E0,3.428049002E0
1.025664708E0,1.534459076E0,1.257534943E0,-2.906805267E0,3.519300449E0
1.035638708E0,9.107061768E-1,2.023492126E0,-3.133433990E0,3.839572203E0
1.045611708E0,1.228944397E-1,2.145338745E0,-2.652184753E0,3.413453580E0
1.055585708E0,-7.162605286E-1,1.901795197E0,-1.385967865E0,2.459829473E0
1.065558708E0,-1.265019379E0,1.706002350E0,-8.442443848E-2,2.125522414E0
1.075532708E0,-1.267264709E0,1.471589813E0,7.770341492E-1,2.091726199E0
1.085506708E0,-7.009922791E-1,9.759704590E-2,1.370849304E0,1.542771264E0
1.095479708E0,-9.964778137E-1,-9.608518982E-1,1.387764130E0,1.960125935E0
1.105453708E0,-8.589138794E-1,-1.054856415E0,1.246457977E0,1.845023739E0
1.115427708E0,-5.230123901E-1,-8.901988220E-1,1.081650696E0,1.495314058E0
1.125400708E0,-4.513114929E-1,-6.905140686E-1,6.891668701E-1,1.074915214E0
1.135374708E0,-4.155358887E-1,-5.078938293E-1,2.859054565E-1,7.157989569E-1
1.145348708E0,-4.050576782E-1,-3.752696228E-1,-3.173400879E-2,5.530877505E-1
1.155321708E0,-4.799020386E-1,-3.394940186E-1,-7.469467163E-1,9.505217264E-1
1.165295708E0,-5.162763977E-1,-3.300636292E-1,-2.296224976E0,2.376579992E0
1.175269708E0,-1.561253357E-1,-4.077520752E-1,-2.912194061E0,2.944742964E0
1.185242708E0,-1.413061523E-1,-6.652166748E-1,-2.684367828E0,2.769171589E0
1.195216708E0,-3.212319946E-1,-9.776170349E-1,-2.374811554E0,2.588175994E0
1.205189708E0,-3.579057312E-1,-1.219214630E0,-2.205812988E0,2.545622078E0
1.215163708E0,-5.839356995E-1,-1.382375336E0,-2.396217041E0,2.827330645E0
1.225137708E0,-1.314566345E0,-1.538500671E0,-2.815794525E0,3.467530505E0
1.235110708E0,-2.391127625E0,-1.939516754E0,-2.871179352E0,4.209855986E0
1.245084708E0,-3.141517181E0,-2.656825104E0,-1.292262726E0,4.312515830E0
1.255058708E0,-1.338965607E0,-5.103636932E0,-9.777667236E-1,5.366187343E0
1.265031708E0,1.883982239E0,-7.982749786E0,7.441026306E-1,8.235737487E0
1.275005708E0,3.602558441E0,-8.217162323E0,5.962101746E0,1.077250394E1
1.284979708E0,4.719535675E0,-9.377698975E0,6.012696533E0,1.209825502E1
1.294952708E0,9.523795166E0,-1.514700165E1,-9.033115540E0,2.004324100E1
1.304926708E0,1.106499023E1,-2.414344345E1,-1.452055435E1,3.026857065E1
1.314900708E0,2.770887909E0,-2.762340683E1,8.913214874E0,2.915777468E1
1.324873708E0,5.511389008E0,-2.980467087E1,4.717290344E0,3.067485359E1
1.334847708E0,8.838370514E0,-3.063559296E1,-8.527916107E0,3.300578286E1
1.344820708E0,4.203858032E0,-3.045881058E1,-1.491827728E1,3.417552576E1
1.354794708E0,2.614762573E0,-3.102208923E1,-1.221519836E1,3.344275818E1
1.364768708E0,2.585722961E0,-3.111265091E1,-7.760162659E0,3.216991039E1
1.374741708E0,1.026565247E0,-3.110337021E1,-4.570296021E0,3.145411071E1
1.384715708E0,1.446891174E0,-3.011108368E1,-3.024610291E0,3.029718010E1
1.394689708E0,3.195704498E0,-2.796245178E1,-3.337908783E0,2.834171611E1
1.404662708E0,4.694837036E0,-2.571412720E1,-2.988984375E0,2.630953933E1
1.414636708E0,5.158872070E0,-2.275612839E1,-2.419418793E0,2.345866423E1
1.424610708E0,5.252277832E0,-1.952854019E1,-2.612816620E0,2.039061341E1
1.434583708E0,5.460045776E0,-1.626293106E1,-3.246299286E0,1.745948125E1
1.444557708E0,5.353916473E0,-1.314162186E1,-3.783083038E0,1.468599210E1
1.454531708E0,4.521048431E0,-1.089105194E1,-3.958218842E0,1.243874542E1
1.464504708E0,3.264710999E0,-9.210496674E0,-3.421584778E0,1.035368675E1
1.474478708E0,2.339784393E0,-7.251071320E0,-2.402503967E0,7.989033208E0
1.484452708E0,1.544637909E0,-5.724695435E0,-1.562151489E0,6.131750269E0
1.494425333E0,7.978408813E-1,-4.573738861E0,-1.366059265E0,4.839602789E0
1.504399333E0,-1.008901978E-1,-3.034789124E0,-1.117126923E0,3.235443774E0
1.514372333E0,-9.711804199E-1,-1.524878998E0,-8.196954346E-1,1.985030975E0
1.524346333E0,-1.926044769E0,-8.966354370E-1,-8.966354370E-2,2.126415555E0
1.534320333E0,-2.858306122E0,-6.213578796E-1,6.273454285E-1,2.991581820E0
1.544293333E0,-3.313958588E0,-2.709365845E-1,6.343807983E-1,3.384991455E0
1.554267333E0,-3.393143921E0,-5.089416504E-2,4.284091187E-1,3.420460533E0
1.564241333E0,-3.333867188E0,2.815644836E-1,-3.826043701E-1,3.367541401E0
1.574214333E0,-2.816842346E0,9.533674622E-1,-3.298840027E0,4.441379948E0
1.584188333E0,-3.931274872E0,1.131197662E0,-8.262817383E-2,4.091620423E0
1.594162333E0,-3.387306061E0,9.021739197E-1,4.177662506E0,5.453496506E0
1.604135333E0,-9.270222473E-1,4.837939453E-1,2.630779266E0,2.830976223E0
1.614109333E0,4.903802490E-1,2.401007080E-1,1.032702484E0,1.168159047E0
1.624083333E0,1.196162567E0,1.053808594E-1,5.102888489E-1,1.304724002E0
1.634056333E0,1.872905273E0,1.348695374E-1,3.131488037E-1,1.903687508E0
1.644030333E0,2.634072418E0,1.775308228E-1,2.624043274E-1,2.653056865E0
1.654004333E0,3.181184692E0,1.520837402E-1,1.785786438E-1,3.189820660E0
1.663977333E0,3.172053680E0,5.209167480E-2,-2.151026917E-1,3.179765284E0
1.673951333E0,2.399210815E0,2.963836670E-2,-1.202898560E0,2.684037242E0
1.683924333E0,1.416504364E0,1.318757629E-1,-2.490520935E0,2.868199846E0
1.693898333E0,6.007008362E-1,-1.932481384E-1,-2.726130981E0,2.798209511E0
1.703872333E0,-8.786727905E-2,-6.518943787E-1,-2.512824554E0,2.597493827E0
1.713845333E0,-9.180409241E-1,-8.789721680E-1,-2.498155060E0,2.802885997E0
1.723819333E0,-1.682351532E0,-8.960366821E-1,-2.935395813E0,3.499962427E0
1.733793333E0,-2.185455322E0,-6.994953918E-1,-3.861968994E0,4.492250358E0
1.743766333E0,-2.213447113E0,-6.117778015E-1,-5.025050354E0,5.524920928E0
1.753740333E0,-1.726659393E0,-9.357041931E-1,-5.595663757E0,5.930290708E0
1.763714333E0,-8.199948120E-1,-1.531016235E0,-5.100493469E0,5.388082761E0
1.773687333E0,4.239184570E-1,-2.476150818E0,-3.141367493E0,4.022340047E0
1.783661333E0,2.618205414E0,-5.602998505E0,-2.250420227E0,6.581259988E0
1.793635333E0,4.074377289E0,-9.556726685E0,-5.677693176E-1,1.040451523E1
1.803608333E0,4.958139496E0,-1.185998703E1,4.431085510E0,1.359694666E1
1.813582333E0,6.570137329E0,-1.695988174E1,2.839894409E0,1.840840280E1
1.823555333E0,1.122545654E1,-2.606499756E1,-6.402036896E0,2.909262877E1
1.833529333E0,9.732461243E0,-3.364358780E1,-4.201163635E0,3.527409216E1
1.843503333E0,6.015091553E0,-3.241299683E1,6.023025055E0,3.351209514E1
1.853476333E0,7.535779266E0,-3.275623306E1,-1.669328613E0,3.365331234E1
1.863450333E0,7.847580872E0,-3.486639496E1,-9.580078125E0,3.700037729E1
1.873424333E0,2.489622803E0,-3.406765594E1,-2.154619446E0,3.422639023E1
1.883397333E0,1.363664246E-1,-3.334091721E1,-4.655319214E-1,3.334444595E1
1.893371333E0,2.567161560E-1,-3.174807953E1,-3.216660919E0,3.191164935E1
1.903345333E0,2.775528259E0,-2.963597168E1,-3.908372498E0,3.002115504E1
1.913318333E0,5.752387848E0,-2.653876236E1,-1.656455383E0,2.720550896E1
1.923292333E0,6.944957886E0,-2.270777893E1,5.014572144E-2,2.374611923E1
1.933266333E0,6.491251373E0,-1.929248108E1,-4.011657715E-2,2.035528875E1
1.943239333E0,5.585335236E0,-1.639809998E1,-1.235231323E0,1.736719462E1
1.953213333E0,4.159999237E0,-1.409828247E1,-2.088007965E0,1.484678213E1
1.963187333E0,2.424358521E0,-1.224199265E1,-2.200424194E0,1.267224387E1
1.973160333E0,8.979826355E-1,-1.045665527E1,-2.241588593E0,1.073185593E1
1.983134333E0,-2.471360779E-1,-8.835676117E0,-2.137704620E0,9.093955670E0
1.993107333E0,-7.920030212E-1,-7.207661591E0,-1.857337646E0,7.485142452E0
2.003081333E0,-5.508544922E-1,-5.269791412E0,-1.592238922E0,5.532573270E0
2.013055333E0,2.865042114E-1,-3.194357300E0,-1.542841644E0,3.558983501E0
2.023028333E0,9.735754395E-1,-1.363813934E0,-1.847158813E0,2.493959355E0
2.033002333E0,1.274000702E0,8.532257080E-3,-2.279160461E0,2.611076980E0
2.042976333E0,1.104403381E0,8.765771484E-1,-2.337389374E0,2.729740539E0
2.052949333E0,9.084608459E-1,1.318009186E0,-1.851350098E0,2.447436722E0
2.062923333E0,6.670129395E-1,1.375040588E0,-1.417701874E0,2.084591443E0
2.072897333E0,4.061054993E-1,1.389710083E0,-1.488354950E0,2.076395013E0
2.082870333E0,-2.851570129E-1,1.359622650E0,-2.030527496E0,2.460270348E0
2.092844333E0,-1.376836853E0,1.162183228E0,-1.917811890E0,2.631416352E0
2.102817333E0,-1.501078491E0,2.586621094E-1,-8.078700256E-1,1.724180009E0
2.112791333E0,-1.264420624E0,-8.225395203E-1,2.499801636E-2,1.508627083E0
2.122765333E0,-1.422940979E0,-1.251397705E0,3.317102051E-1,1.923743462E0
2.132738333E0,-1.365759888E0,-1.247805176E0,-8.951385498E-2,1.852115158E0
2.142712333E0,-1.317410431E0,-1.025517426E0,-9.318122864E-1,1.911944134E0
2.152686333E0,-1.068478088E0,-8.041278076E-1,-1.736089783E0,2.191409293E0
2.162659333E0,-4.276606750E-1,-6.785389709E-1,-1.992057495E0,2.147464051E0
2.172633333E0,-7.694000244E-2,-5.197192383E-1,-1.437460785E0,1.530464426E0
2.182607333E0,-1.511856079E-1,-2.698887634E-1,-7.005432129E-1,7.658053446E-1
2.192580333E0,-1.037342834E-1,-1.484912109E-1,-4.176315308E-1,4.552214151E-1
2.202554333E0,4.116439819E-2,-1.519340515E-1,-4.424798584E-1,4.696454927E-1
2.212528333E0,1.582209778E-1,-1.074765015E-1,-4.005670166E-1,4.438907647E-1
2.222501333E0,1.986369324E-1,-1.838177490E-1,-4.784051514E-1,5.496517849E-1
2.232475333E0,5.927673340E-2,-4.418811035E-1,-9.349557495E-1,1.035816052E0
2.242448333E0,-1.860630798E-1,-8.153544617E-1,-1.769769745E0,1.957423643E0
2.252422333E0,-4.040098572E-1,-1.373543701E0,-1.762584686E0,2.270804051E0
2.262396333E0,1.296304321E-1,-2.158361664E0,1.962419128E-1,2.171137953E0
2.272369333E0,1.786684570E0,-3.363355865E0,2.573298798E0,4.596332357E0
2.282343333E0,3.369493103E0,-3.680845642E0,4.463118896E0,6.694888998E0
2.292317333E0,3.894601135E0,-3.924688568E0,3.251837769E0,6.414479498E0
2.302290333E0,6.916966095E0,-6.378835144E0,-1.640738068E0,9.551229196E0
2.312264333E0,1.359128677E1,-1.238883728E1,-6.445895691E0,1.948732759E1
2.322238333E0,1.487846008E1,-1.903217239E1,1.301992493E0,2.419271264E1
2.332211333E0,1.078162949E1,-2.356474686E1,4.102219391E0,2.623678777E1
2.342185333E0,8.070167999E0,-2.812366653E1,3.796105957E0,2.950387519E1
2.352159333E0,3.677702179E0,-3.442122070E1,-9.028325500E0,3.577508336E1
2.362132333E0,-2.119143219E0,-4.063794296E1,-2.302721466E1,4.675666574E1
2.372106333E0,-2.978206787E0,-4.132067322E1,-1.808105026E1,4.520168282E1
2.382079333E0,1.081351318E0,-3.961841309E1,-1.258507919E1,4.158331630E1
2.392053333E0,3.072510681E0,-3.665233109E1,-8.526568909E0,3.775627197E1
2.402027333E0,5.575455780E0,-3.186408829E1,-5.053491211E0,3.274054983E1
2.412000333E0,8.970845032E0,-2.738405457E1,-1.940714264E0,2.888128939E1
2.421974333E0,1.119956039E1,-2.344933685E1,-6.179150391E-1,2.599391027E1
2.431948333E0,1.140059235E1,-2.036185730E1,-3.339555359E-1,2.333860032E1
2.441921333E0,9.207053833E0,-1.803509583E1,-6.611750793E-1,2.026010055E1
2.451895333E0,7.195087738E0,-1.532857407E1,-2.258952484E0,1.708324726E1
2.461869333E0,4.758454742E0,-1.297352142E1,-4.467609558E0,1.452290208E1
2.471842333E0,2.401605835E0,-1.052102142E1,-6.266119537E0,1.247893651E1
2.481816333E0,-6.002517700E-2,-7.823930054E0,-6.107150116E0,9.925460546E0
2.491790583E0,-2.388133850E0,-6.446195068E0,-4.903652802E0,8.444076323E0
2.501763583E0,-3.834575958E0,-6.045628052E0,-3.664080505E0,8.042330338E0
2.511737583E0,-4.587510223E0,-5.277126160E0,-2.017654266E0,7.277653419E0
2.521710583E0,-3.830833740E0,-3.963457947E0,-3.917353821E-1,5.526096511E0
2.531684583E0,-2.470762024E0,-2.623893585E0,4.170327759E-1,3.628139862E0
2.541658583E0,-1.702559509E0,-1.248703308E0,5.056484985E-1,2.171094019E0
2.551631583E0,-1.208287354E0,-7.424560547E-2,5.032534790E-1,1.311005264E0
2.561605583E0,-5.824388123E-1,5.019062805E-1,3.564088440E-1,8.474503812E-1
2.571579583E0,-3.876937866E-2,7.996371460E-1,3.607498169E-2,8.013888159E-1
2.581552583E0,3.643423462E-1,9.924362183E-1,-1.803749084E-1,1.072478485E0
2.591526583E0,5.831872559E-1,1.063688049E0,-4.281097412E-1,1.286397136E0
2.601500583E0,8.473878479E-1,1.185684357E0,-1.889221344E0,2.386015684E0
2.611473583E0,1.745071106E0,1.470242615E0,-5.776637421E0,6.210992385E0
2.621447583E0,3.144061890E0,1.672472076E0,-6.211034088E0,7.159555325E0
2.631421583E0,3.673211517E0,1.584904175E0,-2.123633881E0,4.529263180E0
2.641394583E0,3.047063599E0,1.549577637E0,2.922672272E0,4.497532727E0
2.651368583E0,1.190474396E0,1.481020203E0,3.740721130E0,4.195669756E0
2.661341583E0,-4.104464722E-1,2.074685669E-1,2.230960693E0,2.277870744E0
2.671315583E0,-1.503772888E0,-1.001118164E0,1.619931335E0,2.426468217E0
2.681289583E0,-2.376757507E0,-1.159937897E0,8.092172241E-1,2.765730408E0
2.691262583E0,-2.981050873E0,-1.234632568E0,-1.526824951E-1,3.230215756E0
2.701236583E0,-3.294948120E0,-1.411564636E0,-8.090675354E-1,3.674750075E0
2.711210583E0,-3.433410187E0,-1.615889740E0,-1.103056183E0,3.951725965E0
2.721183583E0,-3.385210419E0,-1.720971222E0,-1.336720276E0,4.025942451E0
2.731157583E0,-3.033591614E0,-1.652563477E0,-1.741927643E0,3.868844277E0
2.741131583E0,-2.692451019E0,-1.406624908E0,-2.402953033E0,3.873250496E0
2.751104583E0,-2.551893311E0,-1.196911011E0,-3.031945038E0,4.139739865E0
2.761078583E0,-2.388283539E0,-1.140328674E0,-2.802322540E0,3.854511560E0
2.771051583E0,-9.089099121E-1,-1.673070831E0,-1.112187195E0,2.205049567E0
2.781025583E0,2.038910065E0,-3.508853302E0,2.745291138E-1,4.067501934E0
2.790999583E0,4.145629120E0,-5.393434296E0,1.129700775E0,6.895766683E0
2.800972583E0,5.845793610E0,-6.734046478E0,2.076781311E0,9.156074787E0
2.810946583E0,8.139024811E0,-7.335645447E0,9.819580078E-1,1.100089362E1
2.820920583E0,1.106139771E1,-9.406888275E0,-5.578599243E0,1.555521892E1
2.830893583E0,7.855214996E0,-1.370984024E1,3.306623840E-1,1.580422284E1
2.840867583E0,1.114881592E0,-2.220063354E1,6.564898224E0,2.317776908E1
2.850841583E0,3.769910431E0,-3.526067505E1,-2.071991272E0,3.552211392E1
2.860814583E0,1.197180450E1,-4.164055801E1,-1.398571655E1,4.552867714E1
2.870788583E0,8.262068939E0,-3.073857880E1,-7.457641754E0,3.269156512E1
2.880761583E0,3.372337189E0,-3.194477051E1,-1.168215683E1,3.418060575E1
2.890735583E0,2.976260834E0,-3.347698425E1,-1.393287643E1,3.638257342E1
2.900709583E0,4.336182861E0,-3.155153824E1,-9.463919678E0,3.322450636E1
2.910682583E0,5.706433411E0,-3.002441391E1,-6.022126923E0,3.114955578E1
2.920656583E0,6.443650360E0,-2.717898102E1,-1.888472900E0,2.799614204E1
2.930630583E0,5.942193146E0,-2.527404236E1,9.086105347E-2,2.596334209E1
2.940603583E0,5.175487518E0,-2.330383942E1,-3.736230469E-1,2.387455124E1
2.950577583E0,5.117557983E0,-2.050046906E1,-1.116228790E0,2.115903112E1
2.960551583E0,5.215304718E0,-1.778242126E1,-2.276166687E0,1.867069479E1
2.970524583E0,4.484524384E0,-1.549532730E1,-3.416345673E0,1.648901285E1
2.980498583E0,3.581751709E0,-1.309417053E1,-3.935166779E0,1.413406470E1
2.990472583E0,2.572700043E0,-1.064376617E1,-3.994742889E0,1.165617925E1
3.000445583E0,9.322613525E-1,-8.493936768E0,-3.617826691E0,9.279264141E0
3.010419583E0,-7.584727478E-1,-6.959178314E0,-3.301384735E0,7.739805223E0
3.020392583E0,-2.225721588E0,-5.142106934E0,-3.179837494E0,6.442551264E0
3.030366583E0,-3.178639984E0,-2.803070984E0,-3.300187225E0,5.371423909E0
3.040340583E0,-3.380570068E0,-9.939331055E-1,-4.110901337E0,5.414394408E0
3.050313583E0,-3.428171082E0,2.688409424E-1,-4.145030365E0,5.385713429E0
3.060287583E0,-3.173849945E0,8.809181213E-1,-3.171454926E0,4.572468322E0
3.070261583E0,-2.356250153E0,9.313632202E-1,-1.695673828E0,3.048714805E0
3.080234583E0,-1.541644135E0,7.520361328E-1,-5.074447632E-1,1.788777563E0
3.090208583E0,-1.042282562E0,6.740483093E-1,-4.770579529E-1,1.329766278E0
3.100182583E0,-5.215155029E-1,7.508386230E-1,-1.793570251E0,2.013114826E0
3.110155583E0,1.305135956E0,1.122964783E0,-6.508166199E0,6.732061871E0
3.120129583E0,2.221979370E0,1.201401672E0,-5.683231659E0,6.219299027E0
3.130102583E0,1.601819000E0,6.030958557E-1,1.020877075E0,1.992922157E0
3.140076583E0,1.217118988E0,-2.802172852E-1,4.058510284E0,4.246340317E0
3.150050583E0,1.691781921E0,-1.053958282E0,2.930007019E0,3.543712074E0
3.160023583E0,1.866618347E0,-1.346000977E0,7.559280396E-1,2.422273701E0
3.169997583E0,6.541397095E-1,-1.091979218E0,-1.741328888E0,2.156975583E0
3.179971583E0,-6.307882690E-1,-8.542735291E-1,-2.758014679E0,2.955388650E0
3.189944583E0,-1.672322388E0,-8.352630615E-1,-1.463656311E0,2.374155923E0
3.199918583E0,-2.376607819E0,-7.617658997E-1,-4.571493530E-1,2.537230289E0
3.209892583E0,-2.214494934E0,-6.032455444E-1,6.212081909E-2,2.296029616E0
3.219865583E0,-1.542841644E0,-3.044668579E-1,7.339237976E-1,1.735426330E0
3.229839583E0,-8.723858643E-1,-4.206253052E-2,1.263223114E0,1.535760069E0
3.239812583E0,-4.947212219E-1,-1.695973206E-1,1.426533508E0,1.519378224E0
3.249786583E0,-1.657054138E-1,-8.511300659E-1,1.059945831E0,1.369439973E0
3.259760583E0,2.453398132E-1,-1.673220520E0,6.361770630E-2,1.692307816E0
3.269733583E0,6.611750793E-1,-2.148332520E0,-1.432670746E0,2.665526321E0
3.279707583E0,8.461903381E-1,-2.958896942E0,-2.151475983E0,3.754991093E0
3.289681583E0,1.552421722E0,-4.287683716E0,-6.107299805E-2,4.560479664E0
3.299654583E0,3.207829285E0,-5.699547729E0,2.071093140E0,6.860352748E0
3.309628583E0,5.230273590E0,-7.370971985E0,1.767674103E0,9.209324707E0
3.319602583E0,7.758067017E0,-1.062236069E1,-3.262465668E0,1.355233680E1
3.329575583E0,8.107889557E0,-1.357257568E1,-2.814746704E0,1.605850188E1
3.339549583E0,5.008434906E0,-1.527797928E1,3.236569519E0,1.640050162E1
3.349522583E0,3.999383240E0,-1.725641510E1,4.082161102E0,1.817809032E1
3.359496583E0,2.313588867E0,-2.053040680E1,3.749253387E0,2.099779031E1
3.369470583E0,2.826123047E-1,-2.727103958E1,-6.471642151E0,2.802983449E1
3.379443583E0,1.066232758E0,-3.137849808E1,-1.363559464E1,3.422975949E1
3.389417583E0,1.924996948E0,-3.222423935E1,-9.386530609E0,3.361865809E1
3.399391583E0,9.797126770E-1,-3.200359818E1,-8.985364838E0,3.325547946E1
3.409364583E0,2.035616913E0,-3.035253159E1,-8.689430237E0,3.163741626E1
3.419338583E0,3.483106842E0,-3.069262436E1,-8.757688293E0,3.210710712E1
3.429312583E0,5.307063904E0,-3.037752960E1,-6.099066925E0,3.143497812E1
3.439285583E0,6.274651794E0,-2.796694244E1,-4.299509125E0,2.898287259E1
3.449259583E0,6.328240356E0,-2.482258118E1,-4.934039612E0,2.608738985E1
3.459232583E0,5.083129578E0,-2.168645279E1,-3.623065796E0,2.256694589E1
3.469206583E0,3.928580475E0,-1.938199493E1,-2.705024872E0,1.996027634E1
3.479180583E0,2.693648529E0,-1.750849091E1,-2.294728088E0,1.786249628E1
3.489153583E0,7.529342651E-1,-1.546015045E1,-1.788181458E0,1.558142339E1
3.499127833E0,-5.183720398E-1,-1.335283264E1,-1.627864838E0,1.346167869E1
3.509101833E0,-9.985734558E-1,-1.138128250E1,-1.683998108E0,1.154844535E1
3.519074833E0,-8.319699097E-1,-9.536818085E0,-1.611249390E0,9.707687557E0
3.529048833E0,-5.300477600E-1,-7.636519775E0,-1.527872772E0,7.805881124E0
3.539021833E0,-5.593867493E-1,-5.877826996E0,-1.416654053E0,6.071957875E0
3.548995833E0,-6.559359741E-1,-4.352199554E0,-1.199605408E0,4.561901588E0
3.558969833E0,-5.584886169E-1,-3.461102600E0,-1.521436157E0,3.821767749E0
3.568942833E0,-2.312690735E-1,-2.603984985E0,-1.861229553E0,3.209111815E0
3.578916833E0,-7.753875732E-2,-1.271156616E0,-1.591939545E0,2.038657135E0
3.588890833E0,-3.442840576E-2,-4.805007935E-2,-1.354084167E0,1.355373771E0
3.598863833E0,3.594026184E-1,7.503895569E-1,-1.356778564E0,1.591572431E0
3.608837833E0,1.058898010E0,1.157842255E0,-1.713187408E0,2.323117470E0
3.618811833E0,1.646126862E0,1.304686890E0,-2.196382599E0,3.039085067E0
3.628784833E0,1.761686554E0,1.511257324E0,-2.525099030E0,3.429805144E0
3.638758833E0,1.646875305E0,1.606908417E0,-2.287692719E0,3.244671155E0
3.648731833E0,1.532213745E0,7.696994019E-1,-1.300196228E0,2.151889022E0
3.658705833E0,1.144370270E0,-4.093986511E-1,-7.110214233E-2,1.217475291E0
3.668679833E0,5.448669434E-2,-1.032702484E0,6.867718506E-1,1.241410003E0
3.678652833E0,-1.115480347E0,-1.271156616E0,4.120930481E-1,1.740676945E0
3.688626833E0,-1.916165314E0,-1.100661163E0,7.993377686E-2,2.211229051E0
3.698600833E0,-2.309247894E0,-9.226812744E-1,-2.315684509E-1,2.497516871E0
3.708573833E0,-2.255659332E0,-9.330097961E-1,-8.152047729E-1,2.573531644E0
3.718547833E0,-1.743723907E0,-8.181985474E-1,-8.970845032E-1,2.124801764E0
3.728521833E0,-1.045426025E0,-5.566923523E-1,-4.162843323E-1,1.255434027E0
3.738494833E0,-4.209246826E-1,-2.068698120E-1,1.507365417E-1,4.926400436E-1
3.748468833E0,-2.574645996E-2,2.215393066E-2,3.538641357E-1,3.554905110E-1
3.758441833E0,1.266366577E-1,-3.447331238E-1,2.415975952E-1,4.395988714E-1
3.768415833E0,5.565426636E-1,-8.931925964E-1,4.331991577E-1,1.138066018E0
3.778389833E0,1.229543152E0,-1.318009186E0,6.918612671E-1,1.930698472E0
3.788362833E0,1.959275665E0,-1.505569153E0,4.111949158E-1,2.504911349E0
3.798336833E0,2.345921631E0,-1.384021912E0,1.820214844E-1,2.729834568E0
3.808310833E0,2.810854797E0,-2.518961792E0,-3.293151855E-1,3.788736160E0
3.818283833E0,4.259991302E0,-4.830155640E0,-1.576222229E0,6.630415214E0
3.828257833E0,4.795278168E0,-5.872587891E0,1.453477478E0,7.719752458E0
3.838230833E0,5.632487183E0,-8.027656403E0,3.650009766E0,1.046378280E1
3.848204833E0,9.086105347E0,-1.333262466E1,-1.464704132E0,1.620066508E1
3.858178833E0,1.137409744E1,-2.323917389E1,-3.467389526E0,2.610463725E1
3.868151833E0,9.704768829E0,-3.476266068E1,-1.750759277E0,3.613433649E1
3.878125833E0,9.073232117E0,-3.711052826E1,-5.178181915E0,3.855293007E1
3.888099833E0,5.021158447E0,-3.231764511E1,-1.156704620E1,3.469061509E1
3.898072833E0,-1.522783356E0,-3.293675766E1,-1.396775391E1,3.580847698E1
3.908046833E0,-2.520458679E0,-3.326023499E1,-1.171433990E1,3.535281746E1
3.918020833E0,-6.321354675E-1,-3.309842148E1,-6.675518188E0,3.377081051E1
3.927993833E0,1.920955353E0,-3.256238617E1,-2.748584290E0,3.273459604E1
3.937967833E0,4.423750763E0,-3.075249985E1,-2.065704346E0,3.113764526E1
3.947940833E0,6.033203888E0,-2.622920609E1,-2.330054626E0,2.701480993E1
3.957914833E0,6.562952271E0,-2.169797882E1,-2.340682526E0,2.278932693E1
3.967888833E0,6.468947754E0,-1.839629471E1,-2.908601532E0,1.971625996E1
3.977861833E0,6.053262177E0,-1.527109360E1,-3.842659149E0,1.687051606E1
3.987835833E0,5.292095032E0,-1.265648071E1,-4.413571930E0,1.441084283E1
3.997809833E0,4.334087219E0,-1.095796280E1,-4.656516724E0,1.267061201E1
4.007782833E0,3.165018311E0,-9.593849487E0,-4.165088654E0,1.092736255E1
4.017756833E0,1.526824951E0,-7.569459229E0,-2.796185303E0,8.212585445E0
4.027730833E0,9.235794067E-2,-5.531147919E0,-2.112706604E0,5.921626169E0
4.037703833E0,-1.253942413E0,-4.091591492E0,-1.735640717E0,4.618001863E0
4.047677833E0,-2.050585785E0,-2.742297363E0,-8.054750061E-1,3.517653604E0
4.057650833E0,-2.192191315E0,-1.553918610E0,8.771759033E-2,2.688505195E0
4.067624833E0,-2.034868469E0,-6.207591248E-1,1.636097717E-1,2.133729068E0
4.077598833E0,-1.422342224E0,1.663041687E-1,-2.824626160E-1,1.459623105E0
4.087571833E0,-7.488926697E-1,4.917274475E-1,-6.857240295E-1,1.128208118E0
4.097545833E0,-4.113446045E-1,6.491999817E-1,-1.232087860E0,1.452138249E0
4.107519833E0,-8.666976929E-2,1.265169067E0,-5.005590820E0,5.163729648E0
4.117492833E0,2.360591125E-1,1.897154846E0,-8.609197083E0,8.818911204E0
4.127466833E0,1.457968140E-1,1.895059204E0,-4.158202972E0,4.571997163E0
4.137439833E0,5.578898621E-1,1.965113525E0,3.323688354E0,3.901258328E0
4.147413833E0,8.942404175E-1,9.141490173E-1,5.517975311E0,5.664219795E0
4.157387833E0,-1.363664246E-1,-9.716294861E-1,2.361040192E0,2.556789089E0
4.167360833E0,-9.683363342E-1,-1.088087311E0,5.858816528E-1,1.569989351E0
4.177334833E0,-9.906399536E-1,-7.095245361E-1,-5.641767883E-1,1.342791135E0
4.187308833E0,-1.078507233E0,-4.896318054E-1,-2.199526062E0,2.498165738E0
4.197281833E0,-1.278641052E0,-2.670446777E-1,-3.400927734E0,3.643150457E0
4.207255833E0,-1.444196777E0,-1.056802368E-1,-2.213297424E0,2.644911744E0
4.217229833E0,-1.410516815E0,3.098556519E-2,1.453477478E-1,1.418324278E0
4.227202833E0,-1.310524750E0,-7.948471069E-2,1.162781982E0,1.753811529E0
4.237176833E0,-1.163081360E0,-4.840933228E-1,6.497987366E-1,1.417512960E0
4.247149833E0,-7.632627869E-1,-8.243357849E-1,4.879852295E-2,1.124491380E0
4.257123833E0,-3.664379883E-1,-1.147663422E0,-3.077600098E-1,1.243432488E0
4.267097833E0,-6.107299805E-2,-1.555116119E0,-1.185834045E0,1.956608913E0
4.277070833E0,2.959346008E-1,-1.928739166E0,-2.773731995E0,3.391342100E0
4.287044833E0,4.290078735E-1,-2.203268280E0,-3.302133179E0,3.992808836E0
4.297018833E0,8.454418945E-1,-2.702480164E0,-2.290985870E0,3.642360126E0
4.306991833E0,2.331551514E0,-4.294419708E0,7.137158203E-1,4.938376592E0
4.316965833E0,3.581152954E0,-5.180427246E0,5.573809204E0,8.410043518E0
4.326938833E0,4.132456512E0,-4.969815216E0,5.333259430E0,8.379732469E0
4.336912833E0,7.085365906E0,-7.292984161E0,-3.310066681E0,1.069329554E1
4.346886833E0,7.382048950E0,-1.198856964E1,6.256988525E-2,1.407921744E1
4.356859833E0,5.014123077E0,-1.736868164E1,7.950866089E0,1.974914691E1
4.366833833E0,1.103056183E1,-2.949271957E1,2.948867798E-2,3.148800838E1
4.376807833E0,1.235306168E1,-3.804219086E1,-9.082512817E0,4.101583179E1
4.386780833E0,5.111420746E0,-3.483166718E1,-6.452481995E0,3.579114673E1
4.396754833E0,1.063089294E0,-3.749552765E1,-1.195009964E1,3.936812967E1
4.406728833E0,-2.229613495E0,-4.001224411E1,-1.520493118E1,4.286188035E1
4.416701833E0,-4.490212555E0,-3.663841003E1,-1.114597183E1,3.855862792E1
4.426675833E0,-2.729424133E0,-3.370017014E1,-7.516918488E0,3.463604029E1
4.436648833E0,1.651964722E0,-3.007770309E1,-3.927832031E0,3.037803607E1
4.446622833E0,6.610104218E0,-2.581232300E1,-2.466720428E0,2.675918919E1
4.456596833E0,1.002420456E1,-2.193134354E1,-7.429051208E-1,2.412509926E1
4.466569833E0,1.162063477E1,-1.855601257E1,-1.414857788E0,2.194006786E1
4.476543833E0,1.165895508E1,-1.535162613E1,-2.474204865E0,1.943515753E1
4.486517833E0,9.846374359E0,-1.259076736E1,-2.566562805E0,1.618844512E1
4.496490583E0,7.058721313E0,-1.048973648E1,-3.421435089E0,1.309833333E1
4.506464583E0,2.685116272E0,-9.102720795E0,-3.864813080E0,1.024725111E1
4.516438583E0,-1.841770020E0,-8.230035553E0,-3.670217743E0,9.197613837E0
4.526411583E0,-4.761598206E0,-7.379653931E0,-3.322341156E0,9.389891393E0
4.536385583E0,-6.369554443E0,-5.923482056E0,-1.659149780E0,8.855034809E0
4.546358583E0,-6.706204376E0,-4.642745361E0,-6.078858948E-1,8.179106729E0
4.556332583E0,-5.304519196E0,-3.497327271E0,-2.793191528E-1,6.359814551E0
4.566306583E0,-3.285817108E0,-2.220632172E0,-2.604583740E-2,3.965914736E0
4.576279583E0,-1.924547882E0,-9.219328308E-1,-3.365002441E-1,2.160341896E0
4.586253583E0,-1.103804626E0,-5.538482666E-3,-7.969427490E-1,1.361445215E0
4.596227583E0,-1.901046753E-1,4.213737488E-1,-1.196012878E0,1.282241174E0
4.606200583E0,1.040336609E0,8.446934509E-1,-3.345842285E0,3.604229166E0
4.616174583E0,2.861898651E0,1.645378418E0,-7.823930054E0,8.491855834E0
4.626147583E0,3.617078247E0,1.943558350E0,-6.180946655E0,7.420564376E0
4.636121583E0,3.389252014E0,1.876946869E0,-7.096742249E-1,3.938730286E0
4.646095583E0,2.278861084E0,1.497186584E0,3.915258179E0,4.771165698E0
4.656068583E0,3.382965088E-2,4.980143738E-1,4.072730713E0,4.103205847E0
4.666042583E0,-1.195264435E0,-1.784289551E-1,2.210752716E0,2.519508193E0
4.676016583E0,-1.383273468E0,-5.758525085E-1,1.127305756E0,1.875065296E0
4.685989583E0,-1.131047974E0,-6.424639893E-1,2.646496582E-1,1.327429447E0
4.695963583E0,-1.159039764E0,-4.326004028E-1,-8.493338013E-1,1.500627932E0
4.705937583E0,-1.516795807E0,-6.090834045E-1,-2.147584076E0,2.698845953E0
4.715910583E0,-1.423988800E0,-9.752220154E-1,-2.574496307E0,3.099489203E0
4.725884583E0,-8.328680420E-1,-1.151405640E0,-2.114802246E0,2.547899657E0
4.735857583E0,-2.863545227E-1,-1.101110229E0,-1.733395386E0,2.073427648E0
4.745831583E0,1.297801208E-1,-8.637039185E-1,-1.388512573E0,1.640364138E0
4.755805583E0,1.666035461E-1,-5.384303284E-1,-1.061891785E0,1.202197206E0
4.765778583E0,-1.609153748E-1,-4.370910645E-1,-1.400337982E0,1.475767197E0
4.775752583E0,-3.171903992E-1,-5.390290833E-1,-2.147135010E0,2.236370017E0
4.785726583E0,2.369572449E-1,-7.611671448E-1,-1.881886597E0,2.043776240E0
4.795699583E0,1.740730133E0,-2.015708313E0,-1.951342163E0,3.301659831E0
4.805673583E0,2.689457245E0,-3.492986298E0,-5.888754272E-1,4.447573250E0
4.815646583E0,2.730771332E0,-4.641847229E0,3.675307159E0,6.520102797E0
4.825620583E0,2.977907410E0,-5.819897461E0,3.541335754E0,7.435065428E0
4.835594583E0,5.290448456E0,-7.562274170E0,-7.273374939E-1,9.257745693E0
4.845567583E0,7.789651337E0,-1.113294891E1,-3.905827789E0,1.413777600E1
4.855541583E0,6.379882965E0,-1.429467407E1,1.161584473E0,1.569681152E1
4.865515583E0,6.020480347E0,-1.861588806E1,5.391787720E-1,1.957263870E1
4.875488583E0,9.485325165E0,-3.159120575E1,-9.701625366E0,3.438164058E1
4.885462583E0,6.723268890E0,-4.465678574E1,-9.488169250E0,4.614603138E1
4.895436583E0,-2.659070435E0,-4.742932022E1,-8.769813080E0,4.830652848E1
4.905409583E0,-5.478607178E-2,-4.138473999E1,-1.336959778E1,4.349075592E1
4.915383583E0,2.987637177E0,-3.697206619E1,-1.037238052E1,3.851552846E1
4.925357583E0,4.653373260E0,-3.347129608E1,-5.173990631E0,3.418701103E1
4.935330583E0,6.877597961E0,-2.830314331E1,-2.964285736E0,2.927723117E1
4.945304583E0,7.635022888E0,-2.344828903E1,-1.443448334E0,2.470221399E1
4.955277583E0,7.282056885E0,-2.012025970E1,-1.417552185E0,2.144440853E1
4.965251583E0,6.653813324E0,-1.741418701E1,-1.579964447E0,1.870891308E1
4.975225583E0,5.978417816E0,-1.521496033E1,-1.409618683E0,1.640803225E1
4.985198583E0,4.713398438E0,-1.391326721E1,-1.970352631E0,1.482151878E1
4.995172583E0,3.210523682E0,-1.245005997E1,-2.494113464E0,1.309702476E1
5.005146583E0,2.094145203E0,-1.024185196E1,-3.254083099E0,1.094851737E1
5.015119583E0,9.973759460E-1,-8.247698822E0,-3.994593201E0,9.218246551E0
5.025093583E0,-2.523751831E-1,-6.901248779E0,-3.799698486E0,7.882172070E0
5.035066583E0,-1.317560120E0,-5.833070068E0,-2.474354553E0,6.471715503E0
5.045040583E0,-1.725312195E0,-4.264781342E0,-1.018931122E0,4.712035939E0
5.055014583E0,-1.730850677E0,-2.912343750E0,-4.764591980E-1,3.421199140E0
5.064987583E0,-1.791474609E0,-1.676663361E0,-3.344046021E-1,2.476369871E0
5.074961583E0,-1.591939545E0,-4.981640625E-1,-5.644761658E-1,1.760986169E0
5.084935583E0,-1.191522217E0,2.477348328E-1,-1.034199371E0,1.597080486E0
5.094908583E0,-7.316784668E-1,5.727090454E-1,-1.491199036E0,1.756992770E0
5.104882583E0,-6.685098267E-1,7.887098694E-1,-2.456242218E0,2.664975512E0
5.114856583E0,-9.360035706E-1,9.364526367E-1,-4.101321259E0,4.309742717E0
5.124829583E0,-1.567091217E0,1.000968475E0,-5.614374847E0,5.914297735E0
5.134803583E0,-2.087708588E0,1.056353302E0,-6.061045990E0,6.496975291E0
5.144776583E0,-8.131091309E-1,5.998027039E-1,-4.742737427E0,4.849171892E0
5.154750583E0,2.577639771E-1,5.688171387E-2,-2.105222168E0,2.121706430E0
5.164724583E0,9.999206543E-2,-3.350033569E-1,1.537153473E0,1.576409357E0
5.174697583E0,2.601589966E-1,-1.277593231E0,4.198169861E0,4.395970581E0
5.184671583E0,4.203259277E-1,-2.016456757E0,4.423601074E0,4.879653492E0
5.194645583E0,2.421963501E-1,-1.650018768E0,2.864892426E0,3.314940364E0
5.204618583E0,5.134323120E-2,-1.125509491E0,1.257834320E0,1.688654766E0
5.214592583E0,2.424957275E-2,-6.942562866E-1,4.101470947E-2,6.958893875E-1
5.224565583E0,-9.879455566E-2,-2.523751831E-1,-9.027726746E-1,9.425773704E-1
5.234539583E0,-2.516267395E-1,2.767744446E-1,-1.302291870E0,1.354948052E0
5.244513583E0,-1.070274353E-1,5.477110291E-1,-1.127305756E0,1.257879370E0
5.254486583E0,1.082249451E-1,6.809339905E-1,-8.241860962E-1,1.074554075E0
5.264460583E0,-6.376739502E-2,8.134085083E-1,-4.695735168E-1,9.413814157E-1
5.274434583E0,-2.323168945E-1,5.321434021E-1,-2.037263489E-1,6.153471907E-1
5.284407583E0,-3.287164307E-1,-3.469784546E-1,-7.244934082E-2,4.834226378E-1
5.294381583E0,-3.800596619E-1,-1.317410431E0,2.444416809E-1,1.392755300E0
5.304355583E0,4.836442566E-1,-3.027154999E0,3.177891541E-1,3.081974870E0
5.314328583E0,2.192490692E0,-4.348756714E0,1.667532349E0,5.147753347E0
5.324302583E0,3.616030426E0,-4.866829376E0,2.628084869E0,6.608217180E0
5.334275583E0,4.760550385E0,-5.052443390E0,1.728455658E0,7.153850930E0
5.344249583E0,8.718769226E0,-8.198002167E0,-5.914949799E0,1.334956207E1
5.354223583E0,1.058553726E1,-1.600471802E1,-4.497098236E0,1.970858926E1
5.364196583E0,1.010862900E1,-3.019820251E1,-1.219813385E0,3.186853872E1
5.374170583E0,9.668693848E0,-4.821832947E1,-3.714675293E0,4.931824966E1
5.384144583E0,5.376818848E0,-4.946778122E1,-1.022957748E1,5.079976196E1
5.394117583E0,-2.484832764E-2,-4.258584229E1,-1.802641388E1,4.624398532E1
5.404091583E0,-1.074465637E0,-3.950464966E1,-1.464704132E1,4.214626485E1
5.414065583E0,3.577710114E0,-3.119572815E1,-7.763006744E0,3.234559844E1
5.424038583E0,8.583450623E0,-2.437650879E1,-5.994284821E0,2.652962977E1
5.434012583E0,1.130030090E1,-1.958287720E1,-6.024971008E0,2.339842207E1
5.443985583E0,1.276066406E1,-1.765997589E1,-6.425687714E0,2.271560605E1
5.453959583E0,1.043989014E1,-1.927017746E1,-5.885610809E0,2.269298262E1
5.463933583E0,6.361321564E0,-1.987147705E1,-5.641767883E0,2.161415178E1
5.473906583E0,1.770817566E0,-1.903336990E1,-5.094206543E0,1.978271733E1
5.483880583E0,-1.293011169E0,-1.738394989E1,-4.459226990E0,1.799328478E1
5.493855458E0,-2.552492065E0,-1.409394150E1,-3.755091248E0,1.480726555E1
5.503828458E0,-2.322869568E0,-1.017045044E1,-3.597918091E0,1.103534321E1
5.513802458E0,-2.053579559E0,-6.890770569E0,-3.044668579E0,7.808323431E0
5.523776458E0,-2.236199799E0,-4.601880341E0,-2.264191589E0,5.595038495E0
5.533749458E0,-2.984344025E0,-3.121309204E0,-1.406175842E0,4.541608845E0
5.543723458E0,-3.419040070E0,-2.905607758E0,-7.503895569E-1,4.549228058E0
5.553696458E0,-3.208278351E0,-2.931503906E0,5.044509888E-1,4.375069820E0
5.563670458E0,-2.496358795E0,-2.086960144E0,1.934277649E0,3.785318996E0
5.573644458E0,-2.012115784E0,-9.086105347E-1,1.964215393E0,2.955050785E0
5.583617458E0,-1.489851837E0,-7.723937988E-2,1.114133148E0,1.861965921E0
5.593591458E0,-8.485853577E-1,5.803431702E-1,4.183799744E-1,1.109926623E0
5.603565458E0,-1.890568542E-1,8.954379272E-1,-2.424957275E-1,9.467606633E-1
5.613538458E0,2.649490356E-1,9.373507690E-1,-7.505392456E-1,1.229688422E0
5.623512458E0,7.833210754E-1,9.383985901E-1,-1.078058167E0,1.629844542E0
5.633486458E0,2.863844604E0,1.378932495E0,-6.891369324E0,7.589073191E0
5.643459458E0,5.008584595E0,1.622625732E0,-1.120090759E1,1.237655707E1
5.653433458E0,3.736380157E0,4.878355408E-1,-3.391647034E0,5.069693265E0
5.663406458E0,1.475332031E0,-9.985734558E-1,5.422473907E0,5.707624447E0
5.673380458E0,-6.369255066E-1,-1.403182068E0,6.125112762E0,6.315979763E0
5.683354458E0,-9.770182800E-1,-1.562301178E0,2.186652832E0,2.859510500E0
5.693327458E0,-1.199605408E0,-1.069226532E0,3.177891541E-1,1.638074619E0
5.703301458E0,-1.521136780E0,-5.764512634E-1,-6.472540283E-1,1.750740112E0
5.713275458E0,-1.534459076E0,-4.239184570E-1,-1.719174957E0,2.343039489E0
5.723248458E0,-1.699266357E0,-4.665797424E-1,-3.796255646E0,4.185302825E0
5.733222458E0,-1.555565186E0,-5.722599792E-1,-5.190606079E0,5.448821524E0
5.743196458E0,-1.551373901E0,-8.196954346E-1,-5.119503937E0,5.411837225E0
5.753169458E0,-1.763183441E0,-1.240320740E0,-4.377496948E0,4.879517488E0
5.763143458E0,-2.243384857E0,-1.565594330E0,-2.882406006E0,3.973930750E0
5.773116458E0,-2.088756409E0,-1.777553558E0,-1.553768921E-1,2.747133409E0
5.783090458E0,-5.134323120E-1,-2.538421326E0,2.151475983E0,3.366904286E0
5.793064458E0,1.818268890E0,-4.195026398E0,2.918930054E0,5.424435537E0
5.803037458E0,2.503094788E0,-4.890031128E0,5.285957794E0,7.623597428E0
5.813011458E0,2.500699768E0,-4.916076965E0,5.898034973E0,8.075155020E0
5.822985458E0,5.287903748E0,-8.489895172E0,-3.430266724E0,1.057388178E1
5.832958458E0,9.242380371E0,-1.825109665E1,-1.007135651E1,2.280255130E1
5.842932458E0,6.533762970E0,-2.820120529E1,5.286107483E0,2.942687497E1
5.852905458E0,7.101232910E0,-3.378055298E1,6.264173584E0,3.508266152E1
5.862879458E0,1.416339706E1,-3.223426849E1,-4.008364563E0,3.543609556E1
5.872853458E0,1.065559158E1,-3.012829788E1,-6.657405853E0,3.264317720E1
5.882826458E0,5.138514404E0,-3.231749542E1,-9.918823700E0,3.419368223E1
5.892800458E0,1.955533447E0,-3.235386978E1,-1.278656021E1,3.484383910E1
5.902774458E0,-9.207353210E-1,-3.148328018E1,-7.852370911E0,3.246081351E1
5.912747458E0,-1.055904236E0,-3.090563141E1,-3.319197693E0,3.110128711E1
5.922721458E0,6.429130554E-1,-2.814192856E1,-2.706222382E0,2.827905797E1
5.932695458E0,2.359094238E0,-2.454161545E1,-1.565594330E0,2.470439839E1
5.942668458E0,3.903432770E0,-2.136911270E1,-3.335064697E-1,2.172526160E1
5.952642458E0,5.676495667E0,-1.838342148E1,-6.486012268E-1,1.925080445E1
5.962615458E0,7.314389648E0,-1.545476166E1,-1.916464691E0,1.720531286E1
5.972589458E0,7.334148560E0,-1.258956985E1,-3.239263916E0,1.492581103E1
5.982563458E0,6.509962463E0,-9.899813232E0,-3.833228760E0,1.245309424E1
5.992536458E0,4.817731476E0,-7.796087952E0,-3.877985687E0,9.951296243E0
6.002510458E0,2.685116272E0,-6.405180359E0,-3.801045685E0,7.917331187E0
6.012484458E0,4.031117249E-1,-5.246439972E0,-3.381617889E0,6.254835809E0
6.022457458E0,-1.710642700E0,-3.935466156E0,-2.187101898E0,4.816389418E0
6.032431458E0,-2.738704834E0,-2.981649628E0,-7.999365234E-1,4.126819249E0
6.042405458E0,-2.903661804E0,-2.389481049E0,1.350192261E-1,3.762858188E0
6.052378458E0,-2.900069275E0,-1.555265808E0,6.234535217E-1,3.349320502E0
6.062352458E0,-2.757415924E0,-6.554869080E-1,3.326083374E-1,2.853705306E0
6.072325458E0,-2.457290039E0,4.041595459E-3,-2.086660767E-1,2.466137101E0
6.082299458E0,-1.991159363E0,3.989204407E-1,-6.770420837E-1,2.140616525E0
6.092273458E0,-1.623074799E0,7.140151978E-1,-1.980082397E0,2.657990934E0
6.102246458E0,-1.186582489E0,1.322649536E0,-4.686454468E0,5.012009106E0
6.112220458E0,-2.627037048E-1,1.333127747E0,-6.951544189E-1,1.526264227E0
6.122194458E0,9.934840393E-1,8.996292114E-1,2.642155609E0,2.962655822E0
6.132167458E0,1.414558411E0,2.558180237E-1,2.237996063E0,2.659895625E0
6.142141458E0,1.004111938E0,-1.989363098E-1,1.089135132E0,1.494667781E0
6.152115458E0,5.831872559E-1,-3.260220337E-1,3.143463135E-1,7.383842811E-1
6.162088458E0,8.696914673E-2,-4.291575623E-1,-1.216969299E-1,4.544777096E-1
6.172062458E0,-3.092568970E-1,-3.926335144E-1,-2.900967407E-1,5.778901487E-1
6.182035458E0,-5.300477600E-1,-3.314108276E-1,-4.900808716E-1,7.943318106E-1
6.192009458E0,-5.026547241E-1,-2.677931213E-1,-1.900747375E0,1.984241798E0
6.201983458E0,-6.885681152E-3,-3.026705933E-1,-5.739364929E0,5.747344316E0
6.211956458E0,-1.002914429E-1,-6.722520447E-1,-4.665198669E0,4.714452228E0
6.221930458E0,-7.180567932E-1,-8.325686646E-1,-2.333497467E0,2.579532238E0
6.231904458E0,-1.739832001E0,-7.346722412E-1,-9.906399536E-1,2.132633633E0
6.241877458E0,-2.801574097E0,-8.140072632E-1,-1.743873596E-1,2.922641989E0
6.251851458E0,-2.442321167E0,-1.270857239E0,-7.240443420E-1,2.846796623E0
6.261824458E0,-1.224453735E0,-2.124981079E0,-7.625143433E-1,2.568318450E0
6.271798458E0,-1.405577087E-1,-3.082390137E0,1.246457977E0,3.327843583E0
6.281772458E0,6.505471802E-1,-3.430865479E0,3.890409851E0,5.227746969E0
6.291745458E0,1.818119202E0,-3.432512054E0,4.172722778E0,5.700816768E0
6.301719458E0,5.998326416E0,-5.137765961E0,-3.332370300E0,8.572120547E0
6.311693458E0,1.201446579E1,-1.138487503E1,-9.411977692E0,1.904069567E1
6.321666458E0,7.843239899E0,-2.321372681E1,3.397784271E0,2.473738997E1
6.331640458E0,5.665418701E0,-3.727279083E1,4.762346649E0,3.800049804E1
6.341614458E0,1.361224319E1,-4.157828751E1,-2.183659058E0,4.380428659E1
6.351587458E0,9.802216187E0,-3.678330872E1,-6.979535980E0,3.870153957E1
6.361561458E0,1.761836243E-1,-3.512370987E1,-1.327948517E1,3.755064263E1
6.371535458E0,-1.816921692E0,-3.180765564E1,-1.095167587E1,3.368927672E1
6.381508458E0,-1.069525909E0,-3.084949814E1,-6.571933594E0,3.155987535E1
6.391482458E0,4.020639038E-1,-3.118016052E1,-3.358116760E0,3.136305173E1
6.401455458E0,3.142115936E0,-3.009357010E1,-1.288221130E0,3.028457309E1
6.411429458E0,5.352868652E0,-2.641422134E1,-3.073109436E-1,2.695289840E1
6.421403458E0,6.449937286E0,-2.216725296E1,6.047424316E-2,2.308662929E1
6.431376458E0,6.876849518E0,-1.784020111E1,-7.090754700E-1,1.913286761E1
6.441350458E0,7.242239685E0,-1.406565033E1,-1.768721924E0,1.591920011E1
6.451324458E0,6.980284424E0,-1.111932724E1,-2.227817230E0,1.331641763E1
6.461297458E0,5.873186646E0,-8.817713470E0,-2.235151978E0,1.082784820E1
6.471271458E0,4.186045074E0,-7.036866760E0,-2.203867035E0,8.479239180E0
6.481245458E0,1.881886597E0,-5.861959991E0,-2.147883453E0,6.520542572E0
6.491218458E0,-7.864645386E-1,-5.439538422E0,-1.923649750E0,5.823017523E0
6.501192458E0,-2.468965759E0,-5.394332428E0,-1.376836853E0,6.090180127E0
6.511165458E0,-3.061284027E0,-4.851710815E0,-5.361849976E-1,5.761775081E0
6.521139458E0,-3.087030487E0,-3.768114166E0,-1.437011719E-1,4.873303974E0
6.531113458E0,-2.769391022E0,-2.496209106E0,-4.141886902E-1,3.751284954E0
6.541086458E0,-2.181713104E0,-1.316661987E0,-6.550378418E-1,2.631073057E0
6.551060458E0,-1.645827484E0,-3.879931641E-1,-8.440946960E-1,1.889916045E0
6.561034458E0,-1.118923187E0,1.531315613E-1,-1.106349335E0,1.580964017E0
6.571007458E0,-6.417155457E-1,4.324507141E-1,-1.275647278E0,1.492008190E0
6.580981458E0,-2.406994629E-1,6.198609924E-1,-1.970502319E0,2.079673838E0
6.590954458E0,5.673202515E-2,1.034798126E0,-4.219275970E0,4.344688182E0
6.600928458E0,2.237846375E-1,1.370400238E0,-5.861959991E0,6.024172252E0
6.610902458E0,2.305206299E-2,1.266067200E0,-4.456532593E0,4.632940783E0
6.620875458E0,-1.321751404E-1,4.294569397E-1,2.709365845E-2,4.501528597E-1
6.630849458E0,1.938468933E-1,-2.866539001E-1,3.718417511E0,3.734484685E0
6.640823458E0,-5.038522339E-1,-4.314028931E-1,2.937790833E0,3.011742105E0
6.650796458E0,-1.069675598E0,-7.258406067E-1,9.464817810E-1,1.602148006E0
6.660770458E0,-7.541317749E-1,-6.604266357E-1,-2.978805542E-1,1.045758528E0
6.670744458E0,-5.706134033E-1,-6.309379578E-1,-1.855840759E0,2.041525725E0
6.680717458E0,-2.317181396E-1,-5.418731689E-1,-4.596940613E0,4.634563930E0
6.690691458E0,2.526745605E-1,-1.763333130E-1,-4.552183685E0,4.562599498E0
6.700664458E0,5.370831299E-1,1.261875916E-1,-2.567760315E0,2.626361482E0
6.710638458E0,4.273612976E-1,7.469467163E-2,-1.837878113E0,1.888388977E0
6.720612458E0,1.013392639E-1,-5.715115356E-1,-1.086590424E0,1.231898466E0
6.730585458E0,-2.197430420E-1,-1.427581329E0,6.990463257E-2,1.446085099E0
6.740559458E0,-1.706451416E-1,-2.064955902E0,1.770817566E0,2.725611398E0
6.750533458E0,7.514373779E-2,-2.713108063E0,3.357068939E0,4.317002873E0
6.760506458E0,6.581813049E-1,-3.707041168E0,3.017125854E0,4.824769971E0
6.770480458E0,1.376687164E0,-4.108356628E0,2.836002502E0,5.178491279E0
6.780454458E0,2.861599274E0,-4.847519531E0,1.596130829E0,5.851053720E0
6.790427458E0,5.860163727E0,-8.388555908E0,-3.832330627E0,1.092685440E1
6.800401458E0,4.204905853E0,-1.445484100E1,1.460512848E0,1.512470692E1
6.810374458E0,-1.677112427E0,-2.197011292E1,9.297316132E0,2.391523897E1
6.820348458E0,-2.900967407E-1,-2.972668304E1,5.908064117E0,3.030948800E1
6.830322458E0,3.152145081E0,-3.755510376E1,-3.528312836E0,3.785195937E1
6.840295458E0,2.110161896E0,-4.466022858E1,-1.583287537E1,4.743067301E1
6.850269458E0,-8.741821289E-2,-4.430831039E1,-1.895598083E1,4.819297896E1
6.860243458E0,1.743574219E0,-3.908162933E1,-1.052715866E1,4.051215709E1
6.870216458E0,6.409072266E0,-3.265384598E1,-8.144413605E0,3.425903293E1
6.880190458E0,9.556127930E0,-2.873349838E1,-4.562512207E0,3.062270445E1
6.890164458E0,1.089209976E1,-2.634760986E1,1.558558960E0,2.855281928E1
6.900137458E0,1.133532806E1,-2.372775787E1,2.906356201E0,2.645643707E1
6.910111458E0,1.026699966E1,-1.952225327E1,2.367177429E0,2.218407500E1
6.920084458E0,8.589587860E0,-1.589439743E1,1.856439514E0,1.816202789E1
6.930058458E0,7.635771332E0,-1.283880157E1,9.160949707E-1,1.496592996E1
6.940032458E0,6.049669647E0,-1.012195129E1,-2.356100464E-1,1.179440176E1
6.950005458E0,3.061733093E0,-8.738378448E0,-1.055155792E0,9.319164189E0
6.959979458E0,-1.362167358E-2,-8.332871704E0,-1.128054199E0,8.408890692E0
6.969953458E0,-2.718347168E0,-8.124055939E0,-1.076561279E0,8.634157771E0
6.979926458E0,-4.720433807E0,-8.040829010E0,-8.710386658E-1,9.364621448E0
6.989900458E0,-5.131029968E0,-7.617509308E0,-8.830137634E-1,9.226788710E0
6.999874458E0,-4.441264343E0,-6.202202454E0,-9.885443115E-1,7.692162511E0
7.009847458E0,-3.100203094E0,-4.204905853E0,-8.381071472E-1,5.291022212E0
7.019821458E0,-1.621278534E0,-2.437531128E0,-8.187973022E-1,3.039824190E0
7.029794458E0,-7.071295166E-1,-1.216370544E0,-8.346643066E-1,1.635926025E0
7.039768458E0,-1.733395386E-1,-3.164419556E-1,-8.241860962E-1,8.997026331E-1
7.049742458E0,3.858975220E-1,2.788700867E-1,-8.402027893E-1,9.657257115E-1
7.059715458E0,1.186283112E0,7.744894409E-1,-1.262624359E0,1.897714886E0
7.069689458E0,2.557880859E0,1.679058380E0,-4.490511932E0,5.433846607E0
7.079663458E0,3.776047668E0,2.506687317E0,-6.380481720E0,7.826401745E0
7.089636458E0,3.375780029E0,2.559976501E0,-3.531306610E0,5.515387282E0
7.099610458E0,2.181264038E0,2.725382538E0,7.867639160E-1,3.578354404E0
7.109584458E0,8.690927124E-1,2.509082336E0,3.291205902E0,4.228812198E0
7.119557458E0,-3.616479492E-1,4.676275635E-1,3.613036652E0,3.661078888E0
7.129531458E0,-8.394543457E-1,-8.592132568E-1,2.578687592E0,2.844742645E0
7.139504458E0,-1.415606232E0,-8.900491333E-1,1.687440948E0,2.375623164E0
7.149478458E0,-1.558109894E0,-6.882687378E-1,7.640112305E-1,1.866851214E0
7.159452458E0,-1.918710022E0,-5.815406799E-1,-9.789642334E-1,2.231145150E0
7.169425458E0,-2.550246735E0,-8.096662903E-1,-2.794688416E0,3.869056894E0
7.179399458E0,-2.365979919E0,-1.098266144E0,-2.783312073E0,3.814560997E0
7.189373458E0,-1.686393127E0,-1.178349609E0,-1.900897064E0,2.801042526E0
7.199346458E0,-8.686436462E-1,-1.186283112E0,-1.277293854E0,1.947636772E0
7.209320458E0,2.493814087E-1,-1.400787048E0,-1.231938171E0,1.882038018E0
7.219294458E0,1.066532135E0,-1.703008575E0,-1.878743134E0,2.750891631E0
7.229267458E0,1.043480072E0,-1.721869354E0,-1.871857452E0,2.749097135E0
7.239241458E0,3.875440979E-1,-2.158062286E0,-1.233435059E0,2.515707714E0
7.249214458E0,1.222208405E0,-3.751798096E0,-2.019300842E-1,3.951019880E0
7.259188458E0,2.537672882E0,-5.703888702E0,2.666405182E0,6.788508421E0
7.269162458E0,3.156935120E0,-6.355633392E0,5.152585144E0,8.769803238E0
7.279135458E0,5.860762482E0,-7.726782074E0,7.818241882E-1,9.729488535E0
7.289109458E0,6.971452789E0,-1.466694992E1,-1.028062134E0,1.627198469E1
7.299083458E0,2.916235657E0,-2.524694870E1,3.613036652E0,2.567035027E1
7.309056458E0,6.650819550E0,-3.662957840E1,-1.388063507E0,3.725434384E1
7.319030458E0,1.277503418E1,-4.289450043E1,-6.678661652E0,4.525200754E1
7.329004458E0,8.691825256E0,-4.097085068E1,-5.666466522E0,4.226425528E1
7.338977458E0,2.211201782E0,-3.705020370E1,-8.331374817E0,3.803970050E1
7.348951458E0,1.255738678E0,-3.289319824E1,-1.027942383E1,3.448486515E1
7.358924458E0,1.684746552E0,-3.104873383E1,-7.550448761E0,3.199799243E1
7.368898458E0,2.451452179E0,-3.050281906E1,-4.135150909E0,3.087929827E1
7.378872458E0,3.750750275E0,-2.836616226E1,-1.305285645E0,2.864281864E1
7.388845458E0,5.075196075E0,-2.433863754E1,-1.303788757E-1,2.486249970E1
7.398819458E0,5.709576874E0,-1.990665390E1,3.203338623E-2,2.070930138E1
7.408793458E0,6.672075348E0,-1.588302109E1,-5.358856201E-2,1.722758892E1
7.418766458E0,6.474635925E0,-1.263717087E1,-5.914201355E-1,1.421157189E1
7.428740458E0,5.096002808E0,-1.013991394E1,-1.036145325E0,1.139564375E1
7.438714458E0,3.511547699E0,-8.103997650E0,-1.621877289E0,8.979767875E0
7.448687458E0,1.766626282E0,-6.404431915E0,-2.694097595E0,7.169091883E0
7.458661458E0,-8.741821289E-2,-5.091063080E0,-3.425626373E0,6.136895084E0
7.468634458E0,-1.751358032E0,-4.323609009E0,-3.713926849E0,5.962726093E0
7.478608458E0,-2.952160950E0,-3.742367706E0,-2.876119080E0,5.567102593E0
7.488582458E0,-3.447480927E0,-2.809956665E0,-1.737287292E0,4.774845373E0
7.498555083E0,-3.127596130E0,-1.758393402E0,-9.268725586E-1,3.705792446E0
7.508529083E0,-2.445165253E0,-7.331753540E-1,-6.911128235E-1,2.644620227E0
7.518503083E0,-1.779948578E0,9.056167603E-2,-1.128203888E0,2.109327469E0
7.528476083E0,-1.054257660E0,7.973918152E-1,-2.302362213E0,2.654837976E0
7.538450083E0,-1.097218323E-1,1.281485138E0,-3.994144135E0,4.196120876E0
7.548424083E0,4.589456177E-1,1.470242615E0,-4.452490997E0,4.711360791E0
7.558397083E0,-3.727249146E-2,1.341210938E0,-2.247426453E0,2.617472383E0
7.568371083E0,-7.414082336E-1,1.002764740E0,2.957849121E-1,1.281683271E0
7.578344083E0,-1.081201630E0,8.258326721E-1,1.236129456E0,1.838209073E0
7.588318083E0,-9.788145447E-1,6.752458191E-1,1.343007202E0,1.793795745E0
7.598292083E0,-5.661227417E-1,4.438270569E-1,9.460327148E-1,1.188467632E0
7.608265083E0,-3.459306335E-1,1.877096558E-1,-2.005828857E-2,3.940878748E-1
7.618239083E0,-1.802252197E-1,-7.634124756E-3,-1.166823578E0,1.180684832E0
7.628213083E0,3.917353821E-1,-1.196012878E-1,-2.306254120E0,2.342342661E0
7.638186083E0,1.009351044E0,-2.209405518E-1,-2.752925262E0,2.940442442E0
7.648160083E0,8.476872253E-1,-2.851570129E-1,-2.533930664E0,2.687134676E0
7.658133083E0,2.275268555E-2,-3.972738647E-1,-2.137255554E0,2.173983788E0
7.668107083E0,-5.105882263E-1,-5.490582275E-1,-1.692081299E0,1.850757790E0
7.678081083E0,-5.269042969E-1,-5.520520020E-1,-2.075134735E0,2.211011922E0
7.688054083E0,-2.863545227E-1,-6.279441833E-1,-2.839744720E0,2.922407037E0
7.698028083E0,3.215313721E-1,-8.469387817E-1,-2.544857941E0,2.701294072E0
7.708002083E0,5.902226257E-1,-1.525926819E0,-5.751040649E-1,1.734231844E0
7.717975083E0,1.419049072E-1,-3.532953186E0,1.595083008E0,3.878941224E0
7.727949083E0,-3.520678711E-1,-4.588707733E0,4.306993561E0,6.303204263E0
7.737923083E0,3.869453430E-1,-3.806883545E0,5.162614288E0,6.426093317E0
7.747896083E0,2.372266846E0,-4.841981049E0,1.099164276E0,5.502780440E0
7.757870083E0,6.230493622E0,-1.058478882E1,-6.420149231E0,1.385911690E1
7.767843083E0,9.025631104E0,-2.062905167E1,-3.693868561E0,2.281807298E1
7.777817083E0,5.188660126E0,-2.986694138E1,5.231471100E0,3.076239053E1
7.787791083E0,7.418273621E0,-3.336531647E1,3.827241211E0,3.439364624E1
7.797764083E0,1.338726105E1,-3.259801208E1,-3.627556458E0,3.542609654E1
7.807738083E0,8.206833801E0,-3.356036087E1,-4.882546692E0,3.489253796E1
7.817712083E0,2.437531128E0,-3.245984940E1,-6.633156281E0,3.322020685E1
7.827685083E0,1.307231598E0,-2.978206787E1,-9.380992126E0,3.125193489E1
7.837659083E0,2.769241333E-2,-2.820375000E1,-6.606362000E0,2.896715899E1
7.847633083E0,-2.206411743E-1,-2.803564957E1,-2.696342926E0,2.816587642E1
7.857606083E0,7.047344971E-1,-2.715757553E1,-4.828958130E-1,2.717100933E1
7.867580083E0,1.576671295E0,-2.460912506E1,2.850073242E-1,2.466122782E1
7.877554083E0,2.947370911E0,-2.137704620E1,4.721182251E-1,2.158443873E1
7.887527083E0,4.581822052E0,-1.817056412E1,6.375242615E-1,1.875017149E1
7.897501083E0,5.662724304E0,-1.543844559E1,-3.638932800E-1,1.644823598E1
7.907474083E0,5.325325928E0,-1.327095291E1,-1.110690308E0,1.434262599E1
7.917448083E0,4.277654572E0,-1.161434784E1,-1.451980591E0,1.246192810E1
7.927422083E0,3.086731110E0,-9.943672028E0,-1.496438141E0,1.051873802E1
7.937395083E0,2.152823181E0,-8.318501587E0,-1.804347839E0,8.779965115E0
7.947369083E0,1.099313965E0,-7.087311859E0,-2.471959534E0,7.586109973E0
7.957343083E0,-2.911445618E-1,-5.829477539E0,-2.743794250E0,6.449494587E0
7.967316083E0,-1.219214630E0,-4.352199554E0,-2.567011871E0,5.197852944E0
7.977290083E0,-1.639091492E0,-2.998863831E0,-2.273023224E0,4.104441469E0
7.987264083E0,-1.676064606E0,-1.590442657E0,-2.132016449E0,3.143913890E0
7.997237083E0,-1.187630310E0,-2.987786865E-1,-2.088007965E0,2.420642832E0
8.007211083E0,-4.309538269E-1,5.409750366E-1,-2.292333069E0,2.394403076E0
8.017184083E0,1.387614441E-1,9.833052063E-1,-2.660717010E0,2.839992760E0
8.027158083E0,6.086343384E-1,1.355281677E0,-3.340154114E0,3.655660499E0
8.037132083E0,7.271878052E-1,1.726659393E0,-4.480333099E0,4.856288649E0
8.047105083E0,4.093986511E-1,2.191442871E0,-4.443659363E0,4.971532726E0
8.057079083E0,-8.637039185E-2,2.467019806E0,-3.041375427E0,3.917092169E0
8.067053083E0,-9.680369568E-1,1.445094910E0,-1.179098053E0,2.101348868E0
8.077026083E0,-1.586999817E0,-5.171745300E-1,1.053060150E0,1.973568745E0
8.087000083E0,-1.709744568E0,-1.580712891E0,1.953437805E0,3.039374769E0
8.096973083E0,-1.813478851E0,-1.727856903E0,1.532363434E0,2.936380887E0
8.106947083E0,-1.338516541E0,-1.542991333E0,6.580316162E-1,2.146032244E0
8.116921083E0,-7.768844604E-1,-1.392554169E0,-3.844006348E-1,1.640280594E0
8.126894083E0,-3.835025024E-1,-1.200503540E0,-1.319206696E0,1.824442168E0
8.136868083E0,1.672023010E-1,-8.517288208E-1,-1.363364868E0,1.616218536E0
8.146842083E0,7.530839539E-1,-6.436614990E-1,-7.315287781E-1,1.231490934E0
8.156815083E0,1.475631409E0,-5.767506409E-1,-1.944456482E-1,1.596226320E0
8.166789083E0,2.145638123E0,-7.364685059E-1,-1.061293030E-1,2.270993668E0
8.176763083E0,2.553390198E0,-1.087488556E0,2.809657288E-1,2.789511535E0
8.186736083E0,2.723137207E0,-1.938019867E0,7.120692444E-1,3.417373240E0
8.196710083E0,2.699486389E0,-3.767216034E0,6.227050781E-1,4.676206264E0
8.206683083E0,3.062481537E0,-4.736001434E0,9.560618591E-1,5.720363365E0
8.216657083E0,3.566932526E0,-5.438490601E0,2.147584076E0,6.849255800E0
8.226631083E0,4.386029205E0,-6.899751892E0,2.519410858E0,8.555189036E0
8.236604083E0,6.764582977E0,-9.509874115E0,-1.194515991E0,1.173133228E1
8.246578083E0,9.491612091E0,-1.388168289E1,-5.522465973E0,1.769998448E1
8.256552083E0,8.356821899E0,-1.861469055E1,-1.523082733E0,2.046125504E1
8.266525083E0,5.463937683E0,-2.216575607E1,-2.277813263E0,2.294261952E1
8.276499083E0,3.514691162E0,-2.463382370E1,-9.416917419E-1,2.490110655E1
8.286473083E0,3.585044861E-1,-2.700908432E1,-1.851350098E0,2.707483441E1
8.296446083E0,-2.217339020E0,-3.147998703E1,-1.245395187E1,3.392649544E1
8.306420083E0,-1.478924561E0,-3.802258163E1,-1.536405029E1,4.103605699E1
8.316394083E0,8.090675354E-1,-3.863660477E1,-8.405770111E0,3.954868884E1
8.326367083E0,3.837719421E0,-3.121698395E1,-4.733756104E0,3.180623562E1
8.336341083E0,6.652316437E0,-2.641990952E1,-5.177583160E0,2.773215282E1
8.346314083E0,8.527467041E0,-2.369632324E1,-4.596042480E0,2.559994211E1
8.356288083E0,9.203760681E0,-2.176803314E1,-4.244273987E0,2.401187913E1
8.366262083E0,8.575966187E0,-2.064836151E1,-4.249962158E0,2.275882702E1
8.376235083E0,7.455246735E0,-1.946207840E1,-4.365521851E0,2.129344924E1
8.386209083E0,6.362818451E0,-1.753723114E1,-3.969894562E0,1.907354182E1
8.396183083E0,5.653742981E0,-1.535641617E1,-3.927682343E0,1.682887447E1
8.406156083E0,5.135820007E0,-1.307426193E1,-4.400249634E0,1.471989025E1
8.416130083E0,4.035757599E0,-1.111783035E1,-4.589456177E0,1.268686719E1
8.426104083E0,2.125729523E0,-9.457333374E0,-4.217479706E0,1.057104610E1
8.436077083E0,6.331832886E-2,-7.384893036E0,-3.327879639E0,8.100335626E0
8.446051083E0,-1.396745453E0,-5.584137726E0,-2.659519501E0,6.340862400E0
8.456024083E0,-2.062560883E0,-4.246968384E0,-2.406096497E0,5.299075221E0
8.465998083E0,-2.548001404E0,-2.761158142E0,-2.379451904E0,4.447257223E0
8.475972083E0,-2.589165802E0,-1.522783356E0,-1.936822357E0,3.574063450E0
8.485945083E0,-2.255210266E0,-7.390132141E-1,-1.377585297E0,2.744058149E0
8.495918958E0,-1.859882355E0,-1.884580994E-1,-6.131250000E-1,1.967384328E0
8.505892958E0,-1.348695374E0,1.844165039E-1,6.691085815E-2,1.362888741E0
8.515865958E0,-7.761360168E-1,4.204756165E-1,1.071771240E-1,8.891984011E-1
8.525839958E0,-3.703298950E-1,5.393284607E-1,-1.040336609E-1,6.624518264E-1
8.535813958E0,-1.422042847E-1,5.602848816E-1,-1.975891113E-1,6.108867850E-1
8.545786958E0,2.754272461E-2,5.803431702E-1,-2.365081787E-1,6.272901366E-1
8.555760958E0,4.860392761E-1,7.964936829E-1,-1.504072266E0,1.769991453E0
8.565733958E0,2.147135010E0,1.921853485E0,-9.137598267E0,9.581200950E0
8.575707958E0,2.815794525E0,2.003882904E0,-6.424041138E0,7.294693279E0
8.585681958E0,2.536325684E0,1.243164825E0,1.707050171E0,3.300367713E0
8.595654958E0,7.918533325E-1,1.507365417E-1,4.269870758E0,4.345290496E0
8.605628958E0,-5.968089294E-1,-1.225950623E0,2.093845825E0,2.498664877E0
8.615602958E0,-1.071022797E0,-1.207389221E0,1.034049683E0,1.916803931E0
8.625575958E0,-1.417552185E0,-6.960525513E-1,-6.376739502E-2,1.580509295E0
8.635549958E0,-1.159039764E0,-4.418811035E-1,-1.636097717E0,2.053155578E0
8.645523958E0,-6.177653503E-1,-2.755769348E-1,-2.473157043E0,2.563997355E0
8.655496958E0,-2.692900085E-1,-9.430389404E-3,-2.270179138E0,2.286114468E0
8.665470958E0,-2.992277527E-1,7.783813477E-3,-1.459614716E0,1.489990924E0
8.675443958E0,-1.064286804E-1,-3.335064697E-1,-3.860472107E-1,5.211392120E-1
8.685417958E0,3.296145630E-1,-9.098080444E-1,8.351133728E-1,1.278206080E0
8.695391958E0,4.043092346E-1,-1.488654327E0,2.051483917E0,2.566737993E0
8.705364958E0,2.549198914E-1,-2.710263977E0,1.755249939E0,3.239045743E0
8.715338958E0,8.231382751E-1,-3.758683777E0,1.067879333E0,3.993197544E0
8.725312958E0,2.126627655E0,-3.903283081E0,2.519261169E0,5.109289660E0
8.735285958E0,2.880310364E0,-4.137845306E0,4.768932953E0,6.939789124E0
8.745259958E0,4.647984467E0,-5.642516327E0,2.526296539E0,7.734592705E0
8.755233958E0,8.675808563E0,-1.078073135E1,-2.501148834E0,1.406234576E1
8.765206958E0,1.017434235E1,-2.121672958E1,2.167642365E0,2.362975941E1
8.775180958E0,8.052953796E0,-3.163745956E1,6.599176941E0,3.330657666E1
8.785154958E0,5.999972992E0,-3.853990585E1,-3.876937866E-2,3.900417314E1
8.795127958E0,4.233346710E0,-4.060815491E1,-9.060508575E0,4.182148114E1
8.805101958E0,1.093027039E0,-3.996763687E1,-1.216954330E1,4.179359388E1
8.815074958E0,-1.468296661E0,-3.806434479E1,-1.386461838E1,4.053736402E1
8.825048958E0,-9.198371887E-1,-3.300591385E1,-1.356598938E1,3.569695389E1
8.835022958E0,3.138074341E0,-2.882301224E1,-1.112471603E1,3.105435319E1
8.844995958E0,6.872957611E0,-2.582444778E1,-6.091283112E0,2.740881938E1
8.854969958E0,8.857680359E0,-2.287288559E1,-2.615061951E0,2.466710250E1
8.864943958E0,9.447902985E0,-2.075928085E1,-1.540446625E0,2.286008723E1
8.874916958E0,8.437204742E0,-1.863849106E1,-1.923500061E0,2.054944343E1
8.884890958E0,6.286028137E0,-1.554876617E1,-1.948348389E0,1.688414465E1
8.894864958E0,3.929179230E0,-1.310449905E1,-1.980531464E0,1.382348906E1
8.904837958E0,2.119442596E0,-1.085497696E1,-2.067500610E0,1.125153858E1
8.914811958E0,8.852590942E-1,-8.503816223E0,-2.383044434E0,8.875667569E0
8.924785958E0,-7.711962891E-1,-7.088209991E0,-2.700683899E0,7.624379196E0
8.934758958E0,-2.436183929E0,-6.096821594E0,-2.385738831E0,6.985554771E0
8.944732958E0,-3.374283142E0,-4.868625641E0,-1.962568817E0,6.240270725E0
8.954705958E0,-3.219505005E0,-3.550017700E0,-1.521885223E0,5.028317092E0
8.964679958E0,-2.691702576E0,-2.492616577E0,-9.851014709E-1,3.798529329E0
8.974653958E0,-1.898352356E0,-1.656605072E0,-4.736151123E-1,2.563667940E0
8.984626958E0,-1.182690582E0,-8.875044250E-1,-2.386038208E-1,1.497782662E0
8.994600958E0,-7.397616577E-1,-3.629951477E-1,-1.184037781E-1,8.324855807E-1
9.004574958E0,-3.873944092E-1,6.735992432E-3,-2.839595032E-1,4.803673608E-1
9.014547958E0,-7.903564453E-2,3.044668579E-1,-4.888833618E-1,5.813378038E-1
9.024521958E0,2.544708252E-1,4.698728943E-1,-5.965095520E-1,8.008492887E-1
9.034495958E0,6.903643799E-1,6.388714600E-1,-7.354206848E-1,1.193986308E0
9.044468958E0,1.287322998E0,1.067130890E0,-2.826721802E0,3.284254098E0
9.054442958E0,1.985770569E0,1.823358307E0,-6.910230103E0,7.417492861E0
9.064415958E0,1.899250488E0,1.588496704E0,-3.318149872E0,4.140119898E0
9.074389958E0,1.413360901E0,9.379495239E-1,1.789378967E0,2.465606504E0
9.084363958E0,8.384065247E-1,5.393284607E-1,3.676055603E0,3.808829937E0
9.094336958E0,4.700225830E-2,2.706372070E-1,2.193837891E0,2.210967752E0
9.104310958E0,-2.549198914E-1,1.005908203E-1,7.696994019E-1,8.170311092E-1
9.114284958E0,-2.477348328E-1,1.631607056E-2,-8.292755127E-2,2.617551151E-1
9.124257958E0,-2.401007080E-1,4.775070190E-2,-5.107379150E-1,5.663759329E-1
9.134231958E0,-2.788700867E-1,6.167175293E-2,-1.437909851E0,1.466000229E0
9.144205958E0,-2.888992310E-1,-1.037342834E-1,-5.380411377E0,5.389160431E0
9.154178958E0,-5.571414185E-1,-8.797206116E-1,-6.177204437E0,6.264357076E0
9.164152958E0,-7.716453552E-1,-1.784439240E0,-4.941823425E0,5.310487616E0
9.174125958E0,-1.271006927E0,-2.749482422E0,-2.834056549E0,4.148130750E0
9.184099958E0,-1.315314789E0,-3.711082764E0,-9.848020935E-1,4.058574064E0
9.194073958E0,-4.522096252E-1,-5.243146820E0,1.498384094E-1,5.264744407E0
9.204046958E0,1.645079041E-1,-5.775739288E0,4.087100830E0,7.077472739E0
9.214020958E0,1.047970734E0,-5.009482727E0,5.862409058E0,7.782094821E0
9.223994958E0,3.370091858E0,-6.048472137E0,1.396296387E0,7.063368738E0
9.233967958E0,8.445138245E0,-1.437221283E1,-1.067160828E1,1.979303122E1
9.243941958E0,1.060364960E1,-2.794344131E1,-1.007195526E1,3.153914362E1
9.253915958E0,5.345234528E0,-3.436149490E1,6.716532898E-1,3.478124469E1
9.263888958E0,9.162446594E0,-3.270593765E1,1.308279419E0,3.399029833E1
9.273862958E0,1.080977097E1,-3.257540909E1,-4.818629608E0,3.465873075E1
9.283835958E0,3.743714905E0,-3.257570847E1,-6.409820709E0,3.341074655E1
9.293809958E0,1.284628601E0,-2.987442581E1,-5.674100647E0,3.043562068E1
9.303783958E0,1.788181458E0,-2.742926056E1,-4.780159607E0,2.790003322E1
9.313756958E0,1.572030945E0,-2.728226624E1,-2.858904877E0,2.747665681E1
9.323730958E0,2.721939697E0,-2.637215881E1,-2.476450195E0,2.662766459E1
9.333704958E0,4.010759583E0,-2.438099945E1,-1.716929626E0,2.476826950E1
9.343677958E0,4.517455902E0,-2.186787552E1,-1.442101135E0,2.237612664E1
9.353651958E0,5.080435181E0,-1.846425339E1,-1.661245422E0,1.922236227E1
9.363625958E0,4.986730042E0,-1.546299454E1,-1.167572021E0,1.628910375E1
9.373598958E0,4.595743103E0,-1.299762131E1,-1.055305481E0,1.382652104E1
9.383572958E0,4.176614685E0,-1.065214874E1,-1.235530701E0,1.150821095E1
9.393546958E0,3.327729950E0,-8.682993622E0,-1.276096344E0,9.385978198E0
9.403519958E0,2.115850067E0,-7.239395599E0,-8.852590942E-1,7.594034094E0
9.413493958E0,1.158141632E0,-6.115382996E0,-5.586383057E-1,6.249102174E0
9.423467958E0,5.254074097E-1,-5.175337830E0,-6.454577637E-1,5.241830818E0
9.433440958E0,-2.320175171E-2,-4.270619202E0,-9.442364502E-1,4.373820888E0
9.443414958E0,-4.510121155E-1,-3.251089325E0,-1.150657196E0,3.478075001E0
9.453387958E0,-1.032852173E0,-2.182461548E0,-1.334474945E0,2.758757945E0
9.463361958E0,-1.644629974E0,-1.274150391E0,-1.446591797E0,2.533948460E0
9.473335958E0,-2.059866486E0,-5.674699402E-1,-1.673669586E0,2.714082157E0
9.483308958E0,-2.160157928E0,-9.654922485E-2,-2.116598511E0,3.025821093E0
9.493282958E0,-2.100432129E0,1.770817566E-1,-2.469564514E0,3.246832605E0
9.503257083E0,-2.024689636E0,2.809657288E-1,-2.823278961E0,3.485572257E0
9.513230083E0,-1.803000641E0,1.082249451E-1,-3.286864929E0,3.750467306E0
9.523204083E0,-1.442699890E0,-2.652484131E-1,-3.561094666E0,3.851380910E0
9.533178083E0,-1.212029572E0,-4.276606750E-1,-3.572920074E0,3.797060336E0
9.543151083E0,-1.134490814E0,-2.906954956E-1,-2.910846863E0,3.137610992E0
9.553125083E0,-1.038839722E0,5.718109131E-2,-1.200653229E0,1.588718295E0
9.563098083E0,-7.542814636E-1,3.854484558E-1,1.039737854E0,1.341106201E0
9.573072083E0,-2.158511353E-1,3.116519165E-1,2.281106415E0,2.312393804E0
9.583046083E0,4.683760071E-1,1.637594604E-1,2.206711121E0,2.261806184E0
9.593019083E0,6.384223938E-1,5.837860107E-2,1.707050171E0,1.823461406E0
9.602993083E0,5.041516113E-1,-1.580712891E-1,1.027313690E0,1.155218074E0
9.612967083E0,6.162684631E-1,-3.356021118E-1,3.957769775E-1,8.056395050E-1
9.622940083E0,1.015338593E0,-4.969665527E-1,-8.527766418E-1,1.416021261E0
9.632914083E0,1.913770294E0,-6.535409546E-1,-2.963836670E0,3.588030145E0
9.642888083E0,2.865491180E0,-9.677375793E-1,-4.591402130E0,5.498047767E0
9.652861083E0,3.847449188E0,-1.759141846E0,-3.145708466E0,5.271899756E0
9.662835083E0,4.557273102E0,-3.147355042E0,2.333647156E-1,5.543378119E0
9.672809083E0,3.800297241E0,-3.823648682E0,4.148922272E0,6.802654216E0
9.682782083E0,3.122656403E0,-5.169799347E0,6.405629425E0,8.803970504E0
9.692756083E0,3.320544891E0,-6.890471191E0,4.765340424E0,9.011830057E0
9.702729083E0,5.325625305E0,-9.650132446E0,-2.968477020E0,1.141486736E1
9.712703083E0,5.105133820E0,-1.589709183E1,-5.119803314E0,1.746402891E1
9.722677083E0,1.721120911E0,-2.196667007E1,2.245330811E0,2.214810064E1
9.732650083E0,2.019450531E0,-2.853246643E1,-2.680026855E0,2.872912051E1
9.742624083E0,5.576952667E0,-3.352428589E1,-1.190384583E1,3.600946668E1
9.752598083E0,4.476291504E0,-3.260699341E1,-8.279432831E0,3.393821169E1
9.762571083E0,2.366878052E0,-3.203652969E1,-7.718998260E0,3.303822454E1
9.772545083E0,2.366578674E0,-3.085638382E1,-1.010817993E1,3.255598898E1
9.782519083E0,2.554288330E0,-2.893438065E1,-8.268655243E0,3.020088462E1
9.792492083E0,3.001857605E0,-2.762041306E1,-3.834875336E0,2.804647278E1
9.802466083E0,3.275488586E0,-2.628893188E1,-2.280807037E0,2.659020207E1
9.812440083E0,3.500021667E0,-2.480446884E1,-1.896556091E0,2.512187794E1
9.822413083E0,4.092190247E0,-2.266272263E1,-1.090182953E0,2.305501066E1
9.832387083E0,4.649181976E0,-2.020169037E1,-9.705816650E-1,2.075247493E1
9.842360083E0,5.290149078E0,-1.759605881E1,-1.543739777E0,1.843882033E1
9.852334083E0,5.738915863E0,-1.509865219E1,-1.593286743E0,1.623092776E1
9.862308083E0,5.535488892E0,-1.277069321E1,-1.310524750E0,1.398033324E1
9.872281083E0,4.809498596E0,-1.062819855E1,-1.317410431E0,1.173990849E1
9.882255083E0,3.543281708E0,-8.843759308E0,-1.571432190E0,9.655895768E0
9.892229083E0,2.180365906E0,-7.497608643E0,-1.860181732E0,8.026730774E0
9.902202083E0,8.400531006E-1,-6.002517700E0,-1.828447723E0,6.330807929E0
9.912176083E0,-3.674858093E-1,-4.400998077E0,-1.676214294E0,4.723719325E0
9.922150083E0,-9.714797974E-1,-2.945724335E0,-1.464404755E0,3.430094188E0
9.932123083E0,-1.101708984E0,-1.775607605E0,-1.265019379E0,2.442707326E0
9.942097083E0,-1.090332642E0,-9.183403015E-1,-1.318458252E0,1.941779169E0
9.952071083E0,-1.000669098E0,-2.573149109E-1,-1.291813660E0,1.654186247E0
9.962044083E0,-8.713380432E-1,1.751358032E-1,-1.130748596E0,1.438226311E0
9.972018083E0,-6.572831726E-1,3.062631226E-1,-9.017248535E-1,1.157119692E0
9.981991083E0,-5.285508728E-1,4.138893127E-1,-7.285350037E-1,9.906733265E-1
9.991965083E0,-4.855902100E-1,5.743556213E-1,-8.125103760E-1,1.107183518E0
1.000193908E1,-6.346801758E-1,6.444099426E-1,-1.299298096E0,1.583116749E0
1.001191208E1,-9.839039612E-1,7.464976501E-1,-1.994153137E0,2.345628377E0
1.002188608E1,-1.144519958E0,8.764274597E-1,-1.957629089E0,2.431123748E0
1.003186008E1,-7.613168335E-1,8.270301819E-1,-1.163979492E0,1.618156513E0
1.004183308E1,-2.371069336E-1,4.682263184E-1,-3.487747192E-1,6.301582245E-1
1.005180708E1,-3.622467041E-2,3.170407104E-1,3.604504395E-1,4.814058144E-1
1.006178108E1,-1.793270874E-1,5.084925842E-1,3.963757324E-1,6.692059726E-1
1.007175408E1,-5.140310669E-1,7.075785828E-1,-2.305206299E-1,9.044529558E-1
1.008172808E1,-4.888833618E-1,8.478369141E-1,-9.750723267E-1,1.381521052E0
1.009170108E1,-2.821632385E-1,1.010398865E0,-1.384321289E0,1.736913179E0
1.010167508E1,2.574645996E-2,1.008901978E0,-1.529369659E0,1.832353032E0
1.011164908E1,4.288581848E-1,5.167254639E-1,-1.404678955E0,1.556935296E0
1.012162208E1,7.429051208E-1,-3.059637451E-1,-1.098116455E0,1.360654835E0
1.013159608E1,7.206015015E-1,-1.307830353E0,-1.061143341E0,1.831860242E0
1.014157008E1,9.545649719E-1,-3.406615906E0,-1.175206146E0,3.727913049E0
1.015154308E1,1.665287018E0,-4.776567078E0,1.879641266E0,5.396464137E0
1.016151708E1,1.932930450E0,-4.715793457E0,5.454507294E0,7.465023635E0
1.017149108E1,2.641556854E0,-4.932093658E0,4.699926453E0,7.307029433E0
1.018146408E1,5.203928375E0,-8.789721680E0,-2.602787476E0,1.054109009E1
1.019143808E1,8.462801514E0,-1.915072586E1,-9.888287201E0,2.315485984E1
1.020141208E1,6.217919769E0,-2.743659531E1,4.053570557E-1,2.813527328E1
1.021138508E1,4.936434631E0,-2.769780212E1,5.754184113E0,2.871667223E1
1.022135908E1,7.852819977E0,-2.738989243E1,-3.714675293E0,2.873450541E1
1.023133208E1,3.819457397E0,-3.079845428E1,-1.190040298E1,3.323781931E1
1.024130608E1,-5.233117676E-1,-3.260863998E1,-1.182750458E1,3.469131190E1
1.025128008E1,-7.089257812E-1,-3.083213425E1,-8.653355255E0,3.203129150E1
1.026125308E1,-4.126918030E-1,-2.874592255E1,-7.140151978E0,2.962229140E1
1.027122708E1,1.421593781E0,-2.779539917E1,-5.857319641E0,2.844140182E1
1.028120108E1,4.853806458E0,-2.638158920E1,-4.230951691E0,2.715600556E1
1.029117408E1,7.162455597E0,-2.474369522E1,-3.146157532E0,2.595090616E1
1.030114808E1,8.114176483E0,-2.243115417E1,-2.273322601E0,2.396173060E1
1.031112208E1,8.030949554E0,-1.992147308E1,-1.895208893E0,2.156277017E1
1.032109508E1,7.617808685E0,-1.721270599E1,-2.167941742E0,1.894751245E1
1.033106908E1,6.848109283E0,-1.451830902E1,-2.511926422E0,1.624769743E1
1.034104308E1,5.789211273E0,-1.238105347E1,-2.259700928E0,1.385321986E1
1.035101608E1,4.465962982E0,-1.043031006E1,-1.857187958E0,1.149718837E1
1.036099008E1,2.852617950E0,-8.444090424E0,-1.895059204E0,9.112153513E0
1.037096408E1,9.267228699E-1,-6.867868195E0,-1.932032318E0,7.194385151E0
1.038093708E1,-1.033899994E0,-5.720204773E0,-1.783990173E0,6.080486229E0
1.039091108E1,-2.110610962E0,-4.614154816E0,-1.644929352E0,5.333938120E0
1.040088408E1,-2.336042175E0,-3.519032135E0,-1.760489044E0,4.576024682E0
1.041085808E1,-2.201921082E0,-2.411784668E0,-2.120939484E0,3.894039808E0
1.042083208E1,-2.050136719E0,-1.433868256E0,-2.320025482E0,3.411972593E0
1.043080508E1,-1.614392853E0,-7.241940308E-1,-2.095193024E0,2.742363047E0
1.044077908E1,-1.185384979E0,-2.998265076E-1,-1.663640442E0,2.064638710E0
1.045075308E1,-9.372010803E-1,7.409591675E-2,-1.134490814E0,1.473399293E0
1.046072608E1,-6.706054688E-1,2.875520325E-1,-8.304730225E-1,1.105478768E0
1.047070008E1,-5.490582275E-1,3.195854187E-1,-8.388555908E-1,1.052273006E0
1.048067408E1,-5.510041809E-1,3.192860413E-1,-1.029109955E0,1.210213404E0
1.049064708E1,-6.027964783E-1,3.403921509E-1,-1.470691681E0,1.625473602E0
1.050062088E1,-6.735992432E-1,2.142045593E-1,-2.462978210E0,2.562397549E0
1.051059487E1,-2.998265076E-1,-2.251318359E-1,-3.516038361E0,3.535973138E0
1.052056788E1,2.441423035E-1,-8.126600647E-1,-3.942800903E0,4.033075850E0
1.053054188E1,3.370989990E-1,-8.442443848E-1,-3.044069824E0,3.176908153E0
1.054051487E1,1.002914429E-2,-1.922003174E-1,-1.229692841E0,1.244663018E0
1.055048888E1,8.831634521E-3,5.279521179E-1,3.055146790E-1,6.100415196E-1
1.056046288E1,2.381547546E-1,7.250921631E-1,1.261127472E0,1.474082370E0
1.057043587E1,4.276606750E-1,2.399510193E-1,1.429078217E0,1.510872163E0
1.058040988E1,2.618055725E-1,-1.562750244E-1,1.150507507E0,1.190223326E0
1.059038388E1,6.840774536E-2,-6.170169067E-1,7.909552002E-1,1.005484764E0
1.060035687E1,2.938389587E-1,-1.216071167E0,2.393522644E-1,1.273758189E0
1.061033088E1,7.785310364E-1,-1.629810791E0,-3.094065857E-1,1.832519093E0
1.062030488E1,1.309626617E0,-1.757495270E0,-4.495152283E-1,2.237403728E0
1.063027787E1,2.433639221E0,-3.013533325E0,-3.969744873E-1,3.893786294E0
1.064025188E1,3.239263916E0,-5.371430054E0,7.304809570E-1,6.314957955E0
1.065022488E1,3.473526764E0,-7.660020905E0,3.190764771E0,8.995681645E0
1.066019888E1,4.492308197E0,-1.016865417E1,2.031725006E0,1.130089674E1
1.067017288E1,6.467001801E0,-1.493803619E1,-2.224075012E0,1.642904584E1
1.068014587E1,6.792574768E0,-2.308813797E1,-1.851649475E0,2.413772551E1
1.069011988E1,5.472469940E0,-3.143448166E1,-4.905299377E-1,3.191105113E1
1.070009388E1,6.114484863E0,-3.581646927E1,-4.759203186E0,3.664500527E1
1.071006687E1,6.129453735E0,-3.455085114E1,-1.237042557E1,3.720697443E1
1.072004088E1,4.246369629E0,-3.265100189E1,-1.260947845E1,3.525788602E1
1.073001488E1,3.096610565E0,-3.048410797E1,-8.406368866E0,3.177320999E1
1.073998787E1,3.001258850E0,-2.765933212E1,-6.395001526E0,2.854719343E1
1.074996188E1,3.112178192E0,-2.603984985E1,-4.578379211E0,2.662181417E1
1.075993588E1,3.699257355E0,-2.499711823E1,-3.115920410E0,2.546074203E1
1.076990887E1,4.235891418E0,-2.347762802E1,-2.363285522E0,2.397346266E1
1.077988288E1,4.588108978E0,-2.084774689E1,-1.794318695E0,2.142192507E1
1.078985687E1,5.233117676E0,-1.784813461E1,-1.482816467E0,1.865851480E1
1.079982988E1,6.237828369E0,-1.472607697E1,-1.983225861E0,1.611524218E1
1.080980388E1,6.222260742E0,-1.218780533E1,-2.459834747E0,1.390359358E1
1.081977787E1,5.387895813E0,-1.043764481E1,-2.341730347E0,1.197737665E1
1.082975088E1,3.711681519E0,-9.227411499E0,-2.233655090E0,1.019367047E1
1.083972488E1,1.444945221E0,-8.390801239E0,-2.187101898E0,8.790723909E0
1.084969787E1,-6.360273743E-1,-7.352260895E0,-2.018253021E0,7.650726524E0
1.085967188E1,-1.963017883E0,-5.741909637E0,-1.589544525E0,6.272927330E0
1.086964588E1,-2.328557739E0,-3.948938141E0,-1.280137939E0,4.759731792E0
1.087961887E1,-2.174228668E0,-2.475252686E0,-1.103954315E0,3.474602321E0
1.088959288E1,-1.792223053E0,-1.425335999E0,-8.931925964E-1,2.457933928E0
1.089956688E1,-1.545386353E0,-6.607260132E-1,-8.434959412E-1,1.880495479E0
1.090953987E1,-1.362466736E0,-1.872605896E-1,-6.330335999E-1,1.513972811E0
1.091951388E1,-9.806108093E-1,8.008346558E-2,-5.426216125E-1,1.123587618E0
1.092948787E1,-6.524931335E-1,2.499801636E-1,-6.231541443E-1,9.362470075E-1
1.093946088E1,-4.264631653E-1,3.832031250E-1,-6.334826660E-1,8.544095941E-1
1.094943488E1,-2.927911377E-1,4.360432434E-1,-5.129832458E-1,7.341744826E-1
1.095940887E1,-2.481838989E-1,5.111869812E-1,-3.644920349E-1,6.751013412E-1
1.096938188E1,-1.224453735E-1,6.664141846E-1,-6.671626282E-1,9.508978427E-1
1.097935588E1,3.535647583E-1,1.126557312E0,-3.016078033E0,3.238960654E0
1.098932887E1,1.126407623E0,1.382974091E0,-3.358116760E0,3.802414975E0
1.099930288E1,1.859283600E0,1.238374786E0,-1.856140137E-1,2.241642295E0
1.100927688E1,2.091001740E0,1.062640228E0,2.225272522E0,3.233161042E0
1.101924987E1,1.317410431E0,6.866221619E-1,1.824555817E0,2.352875722E0
1.102922388E1,5.700146484E-1,-1.559756470E-1,1.052311707E-1,6.002655255E-1
1.103919788E1,6.598278809E-1,-5.845344543E-1,-9.764195251E-1,1.315465108E0
1.104917087E1,7.298822021E-1,-5.056484985E-1,-1.613644409E0,1.841808001E0
1.105914488E1,9.618997192E-1,-5.375321960E-1,-2.298619995E0,2.549087251E0
1.106911887E1,1.371448059E0,-6.557862854E-1,-2.670147400E0,3.072557984E0
1.107909187E1,1.551373901E0,-7.014413452E-1,-1.621877289E0,2.351439321E0
1.108906588E1,1.941013641E0,-1.244512024E0,1.073268127E0,2.543275173E0
1.109903987E1,2.991080017E0,-3.826941833E0,1.817969513E0,5.186237231E0
1.110901288E1,3.275937653E0,-5.403463440E0,2.299368439E0,6.724305159E0
1.111898688E1,3.231480103E0,-5.911207581E0,3.708388367E0,7.690057411E0
1.112895987E1,4.591851196E0,-6.415957947E0,1.294807434E-1,7.890904831E0
1.113893388E1,6.178252258E0,-8.727900238E0,-3.170107727E0,1.115332356E1
1.114890788E1,3.773652649E0,-1.326736038E1,1.684297485E0,1.389604850E1
1.115888087E1,2.594853973E0,-2.233250931E1,-5.104385376E-2,2.248281220E1
1.116885488E1,4.027375031E0,-3.537683350E1,-7.247628479E0,3.633549527E1
1.117882888E1,1.362616425E0,-4.254108536E1,-1.148262177E1,4.408459220E1
1.118880187E1,2.029329987E0,-3.551379868E1,-1.135089569E1,3.733886594E1
1.119877588E1,5.537135468E0,-2.833263199E1,-9.770033112E0,3.047706435E1
1.120874987E1,6.749015350E0,-2.499247787E1,-7.675289154E0,2.700154111E1
1.121872287E1,7.319928131E0,-2.373030258E1,-6.190077667E0,2.559346928E1
1.122869688E1,6.501130829E0,-2.502151749E1,-5.326972504E0,2.639541012E1
1.123867087E1,5.051245880E0,-2.696223175E1,-3.587589569E0,2.766492047E1
1.124864388E1,3.772754517E0,-2.588507172E1,-3.440295868E0,2.638382554E1
1.125861788E1,3.396886139E0,-2.244148270E1,-4.026626587E0,2.305152279E1
1.126859187E1,4.053570557E0,-1.916494629E1,-3.234922943E0,1.985425211E1
1.127856488E1,4.686903534E0,-1.627026581E1,-2.560575256E0,1.712440247E1
1.128853888E1,4.468058624E0,-1.393033173E1,-2.194586334E0,1.479303549E1
1.129851187E1,3.513044586E0,-1.180714691E1,-1.679956512E0,1.243271709E1
1.130848588E1,2.724334717E0,-9.921368408E0,-1.539249115E0,1.040311677E1
1.131845988E1,1.654060364E0,-8.599916382E0,-1.671124878E0,8.915555833E0
1.132843287E1,2.405497742E-1,-7.544012146E0,-1.440604248E0,7.684095526E0
1.133840688E1,-7.321275330E-1,-6.499633942E0,-1.206640778E0,6.651107732E0
1.134838088E1,-1.023870850E0,-5.190905457E0,-9.782157898E-1,5.380587060E0
1.135835387E1,-9.590556335E-1,-3.861519928E0,-9.145980835E-1,4.082598868E0
1.136832788E1,-8.637039185E-1,-2.613864441E0,-9.900411987E-1,2.925483439E0
1.137830187E1,-5.950126648E-1,-1.521885223E0,-9.301657104E-1,1.880261406E0
1.138827488E1,-4.737648010E-1,-5.939648438E-1,-9.648934937E-1,1.228115132E0
1.139824888E1,-4.571493530E-1,1.278341675E-1,-1.196761322E0,1.287464472E0
1.140822287E1,-4.569996643E-1,5.667214966E-1,-1.437161407E0,1.611041545E0
1.141819588E1,-4.405339050E-1,7.346722412E-1,-1.558409271E0,1.778328676E0
1.142816988E1,-4.117936707E-1,7.685018921E-1,-1.770069122E0,1.973148216E0
1.143814287E1,-5.059478760E-1,7.432044983E-1,-2.514171753E0,2.670092842E0
1.144811688E1,-5.974076843E-1,6.846762085E-1,-4.192481689E0,4.289822860E0
1.145809088E1,-2.398013306E-1,2.808160400E-1,-5.810916138E0,5.822637606E0
1.146806387E1,4.478686523E-1,-5.402265930E-1,-6.080954590E0,6.121310303E0
1.147803788E1,3.362008667E-1,-1.074914703E0,-4.762795715E0,4.894149126E0
1.148801188E1,-9.777667236E-1,-8.030799866E-1,-1.988614655E0,2.357022163E0
1.149798487E1,-1.445843353E0,1.025367737E-1,-1.438508606E-1,1.456595298E0
1.150795912E1,-1.114432526E0,2.448907471E-1,1.062939606E0,1.559413972E0
1.151793313E1,-6.256988525E-2,-6.770420837E-1,1.298100586E0,1.465389404E0
1.152790613E1,5.611830139E-1,-8.821156311E-1,1.270707550E0,1.645524852E0
1.153788012E1,4.704716492E-1,-5.881269836E-1,1.328038330E0,1.526735972E0
1.154785413E1,4.544549561E-1,-7.032376099E-1,1.160536652E0,1.431054773E0
1.155782713E1,6.701564026E-1,-1.199605408E0,9.503736877E-1,1.670740221E0
1.156780112E1,1.163979492E0,-1.736538849E0,8.822653198E-1,2.269098395E0
1.157777513E1,1.715881805E0,-2.141147461E0,4.938230896E-1,2.787942622E0
1.158774812E1,2.300715637E0,-2.685864716E0,1.193917236E0,3.732639827E0
1.159772213E1,2.631378021E0,-3.938010864E0,1.773062897E0,5.057255372E0
1.160769513E1,2.991978149E0,-5.699248352E0,2.038610687E0,6.751984787E0
1.161766912E1,4.092040558E0,-7.082372131E0,2.733765106E0,8.624283309E0
1.162764313E1,6.789281616E0,-9.463620300E0,-1.795665894E0,1.178468795E1
1.163761613E1,7.965086517E0,-1.348021774E1,-2.930156708E0,1.592936571E1
1.164759012E1,5.176385651E0,-1.911405212E1,2.336790619E0,1.993997361E1
1.165756413E1,5.630690918E0,-2.780063828E1,-1.825903015E0,2.842382962E1
1.166753713E1,6.972949677E0,-3.663915848E1,-9.582922211E0,3.850821158E1
1.167751112E1,3.167113953E0,-3.879557419E1,-1.466380646E1,4.159512480E1
1.168748513E1,8.394543457E-1,-3.362891830E1,-1.537976761E1,3.698845876E1
1.169745813E1,4.547543335E-1,-2.980691620E1,-1.120479950E1,3.184661028E1
1.170743212E1,8.887019348E-1,-2.881088745E1,-6.755302277E0,2.960559298E1
1.171740613E1,1.354383545E0,-2.823293930E1,-3.834875336E0,2.852436652E1
1.172737912E1,1.947001190E0,-2.786949509E1,-3.177292786E0,2.811751695E1
1.173735313E1,2.684218140E0,-2.616379211E1,-2.661016388E0,2.643539395E1
1.174732713E1,4.100423126E0,-2.268727158E1,-1.689536591E0,2.311666704E1
1.175730012E1,6.114933929E0,-1.875240417E1,-9.092092896E-1,1.974517006E1
1.176727413E1,7.650590515E0,-1.503922577E1,-8.831634521E-1,1.689644414E1
1.177724713E1,7.970475311E0,-1.174831924E1,-9.650431824E-1,1.422964476E1
1.178722112E1,7.612270203E0,-8.996591492E0,-1.142574005E0,1.184021923E1
1.179719513E1,6.667584686E0,-6.886878662E0,-1.429826660E0,9.691758743E0
1.180716813E1,5.253924408E0,-5.532944183E0,-9.148974609E-1,7.684675034E0
1.181714212E1,4.013453979E0,-4.468058624E0,-5.197192383E-1,6.028388574E0
1.182711613E1,2.597698059E0,-3.206033020E0,-6.387217712E-1,4.175481820E0
1.183708913E1,1.119671631E0,-2.063608704E0,-1.109043732E0,2.596559924E0
1.184706312E1,-2.612068176E-1,-1.300645294E0,-1.331181793E0,1.879348863E0
1.185703713E1,-1.321601715E0,-7.761360168E-1,-1.132095795E0,1.905428849E0
1.186701013E1,-1.931433563E0,-4.589456177E-1,-7.045848083E-1,2.106538972E0
1.187698413E1,-1.917213135E0,-2.023791504E-1,-3.442840576E-1,1.958365399E0
1.188695813E1,-1.655557251E0,7.933502197E-3,-2.959346008E-1,1.681817481E0
1.189693112E1,-1.453477478E0,1.004411316E-1,-4.671784973E-1,1.530013382E0
1.190690513E1,-1.407073975E0,1.669029236E-1,-7.048841858E-1,1.582585060E0
1.191687913E1,-1.525028687E0,2.486329651E-1,-1.171763306E0,1.939216360E0
1.192685212E1,-1.953886871E0,3.935316467E-1,-3.207230530E0,3.776091727E0
1.193682613E1,-2.099533997E0,4.016148376E-1,-4.798721008E0,5.253290473E0
1.194679913E1,-1.016236725E0,-1.498384094E-1,-1.848056946E0,2.114356428E0
1.195677312E1,-2.020797729E-1,-4.457730103E-1,9.448352051E-1,1.064078651E0
1.196674713E1,-3.559597778E-1,-3.275189209E-1,1.249601440E0,1.339955136E0
1.197672013E1,-8.734336853E-1,-2.631527710E-1,2.770738220E-1,9.533654527E-1
1.198669412E1,-1.117725677E0,-3.594026184E-1,-4.366419983E-1,1.252652053E0
1.199666813E1,-8.646020508E-1,-2.276765442E-1,-5.884263611E-1,1.070335881E0
1.200664113E1,-5.084925842E-1,-2.095642090E-2,-4.821473694E-1,7.010491891E-1
1.201661513E1,-2.104623413E-1,-4.640350342E-2,-2.998265076E-1,3.692473654E-1
1.202658913E1,8.502319336E-2,-6.120771790E-1,-3.739224243E-1,7.222779214E-1
1.203656212E1,2.716850281E-1,-1.367406464E0,-8.237370300E-1,1.619307224E0
1.204653613E1,4.790039062E-1,-2.001188507E0,-1.737436981E0,2.693118536E0
1.205651013E1,1.669927368E0,-3.219804382E0,-1.502874756E0,3.926121522E0
1.206648312E1,3.410956879E0,-5.457950134E0,-6.554869080E-1,6.469428845E0
1.207645713E1,5.009482727E0,-6.644382935E0,1.163979492E0,8.402237204E0
1.208643113E1,5.997877350E0,-7.321874084E0,2.071242828E0,9.688881239E0
1.209640412E1,6.286028137E0,-1.048749115E1,-1.364263000E0,1.230296037E1
1.210637813E1,6.411616974E0,-1.554517365E1,-3.849395142E0,1.725048112E1
1.211635113E1,4.998854828E0,-1.913770294E1,1.122066650E0,1.981159401E1
1.212632512E1,4.214485931E0,-2.107332779E1,8.866062927E-1,2.150890761E1
1.213629913E1,6.159541168E0,-2.672886703E1,-7.465126190E0,2.842710660E1
1.214627213E1,4.355642395E0,-3.298495743E1,-1.024080414E1,3.481168061E1
1.215624612E1,-1.046174469E0,-3.309827179E1,-9.666897583E0,3.449694168E1
1.216622013E1,-2.916834412E0,-2.996633469E1,-9.862989807E0,3.168229325E1
1.217619312E1,-3.098556519E0,-2.769840088E1,-5.798342285E0,2.846793349E1
1.218616713E1,-1.700463867E0,-2.544274155E1,-3.717369690E0,2.576904174E1
1.219614113E1,1.613195343E0,-2.386457336E1,-3.269501038E0,2.414145601E1
1.220611412E1,5.966742096E0,-2.274041107E1,-2.535577240E0,2.364651050E1
1.221608813E1,8.480913849E0,-2.165501816E1,-2.263443146E0,2.336640507E1
1.222606213E1,8.544830933E0,-2.000978943E1,-2.179168396E0,2.186674607E1
1.223603512E1,8.553213501E0,-1.759875320E1,-2.867736511E0,1.977618488E1
1.224600913E1,8.215066681E0,-1.525372971E1,-3.588188324E0,1.769289931E1
1.225598313E1,7.561675415E0,-1.362272141E1,-3.900139618E0,1.606139977E1
1.226595612E1,6.082152100E0,-1.192704758E1,-3.966302032E0,1.396347342E1
1.227593013E1,4.089196472E0,-1.002779709E1,-3.441942444E0,1.136332742E1
1.228590412E1,2.424957275E0,-8.153993683E0,-3.109334106E0,9.057372100E0
1.229587712E1,9.611512756E-1,-6.601871338E0,-2.822081451E0,7.243801533E0
1.230585113E1,-4.819976807E-1,-5.201683044E0,-1.766177216E0,5.514454662E0
1.231582412E1,-1.474433899E0,-3.819158020E0,-6.767427063E-1,4.149446227E0
1.232579813E1,-2.340383148E0,-2.775079193E0,8.262817383E-2,3.631154806E0
1.233577213E1,-2.935994568E0,-2.012115784E0,7.848179626E-1,3.644806341E0
1.234574512E1,-3.108435974E0,-1.164578247E0,8.258326721E-1,3.420616363E0
1.235571913E1,-2.782863007E0,-4.164340210E-1,6.762936401E-1,2.893979422E0
1.236569313E1,-2.251767426E0,7.514373779E-2,4.385879517E-1,2.295313162E0
1.237566612E1,-1.857786713E0,3.138972473E-1,3.435356140E-1,1.915181367E0
1.238564013E1,-1.544039154E0,4.499642944E-1,3.249742126E-1,1.640772079E0
1.239561413E1,-1.245410156E0,5.477110291E-1,1.889071655E-1,1.373579173E0
1.240558712E1,-9.021739197E-1,5.788462830E-1,2.649490356E-2,1.072232615E0
1.241556113E1,-4.405339050E-1,5.816903687E-1,-1.490899658E-1,7.447560838E-1
1.242553513E1,-5.014572144E-2,5.364843750E-1,-4.061054993E-1,6.747234652E-1
1.243550812E1,1.484912109E-1,4.421804810E-1,-7.887098694E-1,9.163167987E-1
1.244548213E1,1.558259583E-1,2.983296204E-1,-9.822573853E-1,1.038321657E0
1.245545512E1,3.188369751E-2,1.722917175E-1,-5.089416504E-1,5.382588686E-1
1.246542913E1,-2.992277527E-1,1.333726501E-1,-4.894821167E-2,3.312422666E-1
1.247540313E1,-6.689588928E-1,4.939727783E-3,-4.575984192E-1,8.105101569E-1
1.248537612E1,-4.155358887E-1,-4.447251892E-1,-1.563049622E0,1.677371363E0
1.249535013E1,3.532653809E-2,-1.011147308E0,-2.742596741E0,2.923269356E0
1.250532433E1,2.703378296E-1,-1.515448608E0,-3.848047943E0,4.144531337E0
1.251529733E1,2.408491516E-1,-2.054477692E0,-4.885091400E0,5.304998104E0
1.252527133E1,4.287084961E-1,-2.675386505E0,-5.178032227E0,5.844099731E0
1.253524533E1,1.249002686E0,-3.730242920E0,-4.823269958E0,6.224038323E0
1.254521833E1,2.455044708E0,-5.055736542E0,-1.714833984E0,5.876084759E0
1.255519233E1,4.595593414E0,-5.850284271E0,4.283791809E0,8.584647759E0
1.256516633E1,5.600154419E0,-6.175408173E0,2.434986420E0,8.684846255E0
1.257513933E1,9.131610718E0,-8.917705536E0,-8.989556122E0,1.561165928E1
1.258511333E1,9.646689606E0,-1.665047516E1,-5.954018555E0,2.014316957E1
1.259508733E1,2.354453888E0,-2.313738556E1,4.929399261E0,2.377353656E1
1.260506033E1,-1.431473236E0,-2.801169937E1,-2.813249817E0,2.818898352E1
1.261503433E1,9.771679688E-1,-3.260744247E1,6.242019653E-2,3.262214061E1
1.262500733E1,3.290008392E0,-3.661760330E1,-6.729406128E0,3.737590044E1
1.263498133E1,2.842888184E0,-3.798411163E1,-1.613599503E1,4.136719818E1
1.264495533E1,3.814068604E0,-3.257615753E1,-8.206534424E0,3.380976732E1
1.265492833E1,4.873565369E0,-3.034549622E1,-2.811752930E0,3.086270783E1
1.266490233E1,4.433779907E0,-3.026661026E1,-5.414091339E0,3.106506858E1
1.267487633E1,3.350931702E0,-2.773252991E1,-6.256689148E0,2.862635355E1
1.268484933E1,3.210972748E0,-2.486314682E1,-4.681814117E0,2.550305470E1
1.269482333E1,4.486769714E0,-2.215393066E1,-2.871628418E0,2.278538997E1
1.270479733E1,5.451812897E0,-1.875315262E1,-1.661544800E0,1.960009510E1
1.271477033E1,6.638245697E0,-1.492995300E1,-1.511556702E0,1.640897944E1
1.272474433E1,7.431595917E0,-1.157183624E1,-2.370620270E0,1.395549542E1
1.273471833E1,7.248526611E0,-8.671766968E0,-2.942131805E0,1.167890491E1
1.274469133E1,6.103707275E0,-6.339167633E0,-2.795436859E0,9.233350205E0
1.275466533E1,4.254602509E0,-4.807852020E0,-2.019151154E0,6.730085804E0
1.276463933E1,1.923200684E0,-4.089495850E0,-1.388512573E0,4.727646808E0
1.277461233E1,-4.930746460E-1,-4.128414917E0,-1.087338867E0,4.297585153E0
1.278458633E1,-2.316582642E0,-3.770658875E0,-7.264393616E-1,4.484655798E0
1.279456033E1,-2.985391846E0,-2.780617676E0,-2.474354553E-1,4.087251330E0
1.280453333E1,-2.869233398E0,-1.633553009E0,2.368075562E-1,3.310147058E0
1.281450733E1,-2.424508209E0,-6.382727051E-1,5.062472534E-1,2.557717417E0
1.282448033E1,-1.809437256E0,-9.969268799E-2,2.511776733E-1,1.829505955E0
1.283445433E1,-1.264570312E0,2.417472839E-1,-2.326162720E-1,1.308315770E0
1.284442833E1,-8.960366821E-1,4.439767456E-1,-7.194039917E-1,1.231884406E0
1.285440133E1,-7.571255493E-1,6.535409546E-1,-1.831291809E0,2.086620370E0
1.286437533E1,-9.041198730E-1,1.161883850E0,-4.784350891E0,5.005738734E0
1.287434933E1,-1.204545135E0,1.521286469E0,-6.457870789E0,6.743095478E0
1.288432233E1,-1.130149841E0,1.381327515E0,-4.626578979E0,4.958884695E0
1.289429633E1,-3.616479492E-1,9.639953613E-1,-1.409768372E0,1.745715658E0
1.290427033E1,-9.250762939E-2,4.504133606E-1,3.617976379E-1,5.850875043E-1
1.291424333E1,-6.066883850E-1,-2.682421875E-1,6.803352356E-1,9.502003475E-1
1.292421733E1,-5.718109131E-1,-8.693920898E-1,3.814068604E-1,1.108278629E0
1.293419133E1,-3.222798157E-1,-7.679031372E-1,1.493893433E-1,8.460831423E-1
1.294416433E1,5.583389282E-2,-4.736151123E-1,-3.698808289E-1,6.035234260E-1
1.295413833E1,4.495152283E-1,-2.740800476E-1,-7.857160950E-1,9.457978615E-1
1.296411133E1,7.846682739E-1,-2.987786865E-1,-4.899311829E-1,9.721139684E-1
1.297408533E1,1.201102295E0,-7.499404907E-1,6.346801758E-2,1.417422185E0
1.298405933E1,1.351689148E0,-1.551373901E0,5.063969421E-1,2.119023926E0
1.299403233E1,1.155447235E0,-2.299667816E0,9.526190186E-1,2.744269187E0
1.300400633E1,1.077609100E0,-3.185525665E0,1.613045654E0,3.729709294E0
1.301398033E1,1.604513397E0,-3.795207825E0,1.877845001E0,4.528174856E0
1.302395333E1,2.284549255E0,-4.161645813E0,1.683099976E0,5.036991831E0
1.303392733E1,3.135080566E0,-4.014501801E0,3.006497955E0,5.914726098E0
1.304390133E1,4.030967560E0,-4.310586090E0,1.934726715E0,6.210718104E0
1.305387433E1,5.578748932E0,-7.097341003E0,-3.134182434E0,9.556034140E0
1.306384833E1,4.917873230E0,-1.173814041E1,1.923050995E0,1.287119041E1
1.307382233E1,4.743036804E0,-1.733754639E1,4.898413696E0,1.863011996E1
1.308379533E1,1.047237259E1,-2.890923294E1,-3.401975555E0,3.093521900E1
1.309376933E1,1.056682617E1,-3.921455292E1,-7.272925873E0,4.125935563E1
1.310374333E1,4.951553192E0,-3.981465500E1,-8.966354370E0,4.111107080E1
1.311371633E1,3.264261932E0,-3.582649841E1,-1.575069626E1,3.927184522E1
1.312369033E1,1.060245209E0,-3.238605286E1,-1.637145538E1,3.630433984E1
1.313366333E1,3.043171692E-1,-3.010404831E1,-9.831255798E0,3.167017405E1
1.314363733E1,1.701661377E0,-2.828577942E1,-5.062921600E0,2.878565865E1
1.315361133E1,3.055595856E0,-2.680939957E1,-3.098556519E0,2.716029498E1
1.316358433E1,3.196752319E0,-2.504127640E1,-2.242636414E0,2.534391775E1
1.317355833E1,3.494782562E0,-2.222203903E1,-2.085463257E0,2.259162856E1
1.318353233E1,3.917054443E0,-1.906600204E1,-2.039209442E0,1.957074665E1
1.319350533E1,4.416116638E0,-1.588257202E1,-2.263293457E0,1.663973189E1
1.320347933E1,4.937183075E0,-1.243524078E1,-2.589614868E0,1.362780596E1
1.321345333E1,4.887486420E0,-1.002510269E1,-3.234922943E0,1.161270571E1
1.322342633E1,3.969146118E0,-8.571774902E0,-3.222349091E0,9.980630218E0
1.323340033E1,2.554288330E0,-7.303761749E0,-2.327809296E0,8.080100289E0
1.324337433E1,9.249266052E-1,-6.003116455E0,-1.149908752E0,6.181843296E0
1.325334733E1,-1.362167358E-1,-4.626878357E0,-4.564009094E-1,4.651328855E0
1.326332133E1,-7.364685059E-1,-3.202590179E0,-8.951385498E-2,3.287397519E0
1.327329533E1,-1.176703033E0,-1.920506287E0,1.634600830E-1,2.258250124E0
1.328326833E1,-1.254241791E0,-8.659492493E-1,4.456233215E-1,1.587945439E0
1.329324233E1,-1.110241241E0,-1.701960754E-1,1.658551025E-1,1.135389904E0
1.330321633E1,-8.759783936E-1,1.880090332E-1,-2.936892700E-1,9.428355794E-1
1.331318933E1,-5.424719238E-1,3.733236694E-1,-6.577322388E-1,9.307298471E-1
1.332316333E1,-3.290158081E-1,4.406835938E-1,-8.196954346E-1,9.870937328E-1
1.333313633E1,-1.576222229E-1,4.375401306E-1,-9.859996033E-1,1.090174917E0
1.334311033E1,-1.553768921E-1,6.744973755E-1,-3.357068939E0,3.427681512E0
1.335308433E1,-4.258644104E-1,1.212778015E0,-9.865983582E0,9.949362947E0
1.336305733E1,-7.535330200E-1,8.523275757E-1,-7.993677063E0,8.074227350E0
1.337303133E1,-8.098159790E-1,-1.670526123E-1,-3.226839752E0,3.331096408E0
1.338300533E1,-6.526428223E-1,-8.978329468E-1,1.325493622E0,1.728866679E0
1.339297833E1,-7.518864441E-1,-6.231541443E-1,2.876418457E0,3.037669740E0
1.340295233E1,-9.472302246E-1,-5.809419250E-1,2.191891937E0,2.457463913E0
1.341292633E1,-4.748126221E-1,-5.176235962E-1,9.165440369E-1,1.154744208E0
1.342289933E1,-9.580078125E-2,-2.805166626E-1,-1.024768982E0,1.066779665E0
1.343287333E1,2.225871277E-1,3.203338623E-2,-2.601290588E0,2.610992894E0
1.344284733E1,9.310638428E-2,2.386038208E-1,-1.933678894E0,1.950567776E0
1.345282033E1,-1.907034302E-1,2.993774414E-2,-5.420228577E-1,5.753719189E-1
1.346279433E1,-6.126759338E-1,-3.987707520E-1,2.417472839E-1,7.699556233E-1
1.347276833E1,-4.549040222E-1,-9.229806519E-1,4.775070190E-1,1.134391426E0
1.348274133E1,2.829116821E-2,-1.493294678E0,7.673043823E-1,1.679132335E0
1.349271533E1,5.510041809E-1,-2.157613220E0,1.779649200E0,2.850623036E0
1.350268808E1,1.274150391E0,-4.071832581E0,2.600093079E0,4.996375066E0
1.351266208E1,2.038760376E0,-5.365143127E0,2.414479065E0,6.226637440E0
1.352263608E1,2.692001953E0,-7.263645172E0,1.375190277E0,7.867564045E0
1.353260908E1,4.343816986E0,-1.027912445E1,-3.761677551E-1,1.116560109E1
1.354258308E1,9.107959900E0,-1.509281433E1,-5.551655273E0,1.848158149E1
1.355255708E1,1.212987579E1,-1.930819839E1,-1.842368774E0,2.287651055E1
1.356253008E1,1.033091675E1,-2.171504333E1,7.045848083E-1,2.405758483E1
1.357250408E1,9.463919678E0,-2.650089111E1,-2.642155609E0,2.826382833E1
1.358247808E1,9.339228973E0,-3.247511765E1,-6.337371368E0,3.438047032E1
1.359245108E1,6.306535492E0,-3.421988937E1,-6.624773712E0,3.542119204E1
1.360242508E1,2.075733490E0,-3.083243362E1,-1.026774811E1,3.256338870E1
1.361239908E1,-8.551716614E-1,-2.863799698E1,-1.151959488E1,3.087988432E1
1.362237208E1,-2.502046967E0,-2.804118805E1,-7.320975952E0,2.908891808E1
1.363234608E1,-1.699266357E0,-2.769121582E1,-5.238506470E0,2.823354193E1
1.364232008E1,-1.043929138E0,-2.702629852E1,-3.966900787E0,2.733581720E1
1.365229308E1,-5.605842590E-1,-2.521701096E1,-2.875969391E0,2.538667162E1
1.366226708E1,1.137334900E0,-2.247306702E1,-3.233426056E0,2.273295660E1
1.367224108E1,3.949985962E0,-1.962898132E1,-3.346291351E0,2.030017149E1
1.368221408E1,6.152805176E0,-1.689506653E1,-3.373983765E0,1.829437211E1
1.369218808E1,8.117619324E0,-1.400143387E1,-4.020489349E0,1.667633738E1
1.370216208E1,1.002420456E1,-1.089883575E1,-4.577481079E0,1.549911710E1
1.371213508E1,1.098775085E1,-8.537945251E0,-5.725743256E0,1.504697025E1
1.372210908E1,9.938881989E0,-6.693031769E0,-6.571334839E0,1.366603421E1
1.373208208E1,7.205416260E0,-5.139113159E0,-5.698948975E0,1.052646792E1
1.374205608E1,3.677552490E0,-4.405488739E0,-3.139571228E0,6.541378360E0
1.375203008E1,-6.294410706E-1,-4.023034058E0,-4.417314148E-1,4.095866909E0
1.376200308E1,-4.008364563E0,-3.413800964E0,1.512005768E0,5.477881428E0
1.377197708E1,-6.287225647E0,-3.211272125E0,2.906056824E0,7.634568833E0
1.378195108E1,-6.526577911E0,-2.393223267E0,2.777474213E0,7.485859993E0
1.379192408E1,-6.043682098E0,-1.187480621E0,1.832040253E0,6.425929895E0
1.380189808E1,-5.415737915E0,-4.287084961E-1,7.071295166E-1,5.478507123E0
1.381187208E1,-4.936434631E0,-8.292755127E-2,-2.380050659E-2,4.937188503E0
1.382184508E1,-4.640050964E0,4.655319214E-2,-5.080435181E-1,4.668013321E0
1.383181908E1,-4.555776215E0,3.607498169E-1,-3.741170197E0,5.906063984E0
1.384179308E1,-4.730912018E0,1.023272095E0,-1.033660492E1,1.141376430E1
1.385176608E1,-2.623743896E0,1.152303772E0,-6.667434998E0,7.257170624E0
1.386174008E1,-2.811154175E-1,1.382824402E0,-1.609153748E-1,1.420254541E0
1.387171408E1,1.381028137E0,1.140478363E0,2.310295715E0,2.923250914E0
1.388168708E1,1.724713440E0,-9.370513916E-2,1.936522980E0,2.594906232E0
1.389166108E1,6.866221619E-1,-1.160686340E0,3.119512939E-1,1.384180763E0
1.390163408E1,8.692424011E-1,-1.052012329E0,-7.220983887E-1,1.543936001E0
1.391160808E1,1.762884064E0,-7.694000244E-1,-1.289867706E0,2.315922132E0
1.392158208E1,2.712359619E0,-4.505630493E-1,-8.628057861E-1,2.881724412E0
1.393155508E1,3.065774689E0,-1.384620667E-1,-3.896397400E-1,3.093536053E0
1.394152908E1,2.237097931E0,1.639091492E-1,-4.575984192E-1,2.289294580E0
1.395150308E1,9.159452820E-1,2.513273621E-1,-7.231462097E-1,1.193759458E0
1.396147608E1,5.388793945E-3,-1.628613281E-1,-2.333647156E-1,2.846259682E-1
1.397145008E1,-1.820214844E-1,-8.500822449E-1,1.529369659E0,1.759188222E0
1.398142408E1,3.971241760E-1,-1.387913818E0,3.651207275E0,3.926235722E0
1.399139708E1,1.253942413E0,-1.515448608E0,4.153862000E0,4.596033678E0
1.400137108E1,1.967658234E0,-1.687590637E0,2.912792816E0,3.899231087E0
1.401134508E1,3.367996216E0,-2.598745880E0,-7.764353943E-1,4.324318511E0
1.402131808E1,7.078330536E0,-4.912634125E0,-5.930667114E0,1.045990199E1
1.403129208E1,9.719887390E0,-8.030051422E0,-3.227588196E0,1.301442516E1
1.404126608E1,9.012159119E0,-1.308444077E1,1.610201569E0,1.596916877E1
1.405123908E1,4.712500305E0,-2.527434174E1,1.704355774E0,2.576635088E1
1.406121308E1,3.194207611E0,-3.619368484E1,2.133064270E0,3.639691949E1
1.407118708E1,1.021939865E1,-3.691249008E1,-9.598040771E-1,3.831304291E1
1.408116008E1,8.939859467E0,-3.567127121E1,-1.078956299E1,3.832460497E1
1.409113408E1,2.726580048E0,-3.266522232E1,-1.918695053E1,3.798144361E1
1.410110708E1,2.756517792E0,-2.933794144E1,-1.545401321E1,3.327370918E1
1.411108108E1,4.188589783E0,-2.854339371E1,-7.297175446E0,2.975766083E1
1.412105508E1,3.850293274E0,-2.833936798E1,-6.164630585E0,2.925657543E1
1.413102808E1,3.197800140E0,-2.746877838E1,-6.316714325E0,2.836654000E1
1.414100208E1,2.752775574E0,-2.555964844E1,-5.393434296E0,2.626713793E1
1.415097608E1,2.643951874E0,-2.292213318E1,-3.259322205E0,2.330317258E1
1.416094908E1,3.053949280E0,-2.042637314E1,-2.768941956E0,2.083819487E1
1.417092308E1,3.898343353E0,-1.773511963E1,-3.155587921E0,1.843066153E1
1.418089708E1,4.572241974E0,-1.458746521E1,-3.593128052E0,1.570382460E1
1.419087008E1,4.051474915E0,-1.191537186E1,-3.396287384E0,1.303554001E1
1.420084408E1,2.570903778E0,-9.917925568E0,-3.102747803E0,1.070522479E1
1.421081808E1,5.842350769E-1,-8.338260498E0,-3.428021393E0,9.034337243E0
1.422079108E1,-2.048789520E0,-7.322023773E0,-3.579506378E0,8.403715639E0
1.423076508E1,-4.655468903E0,-6.728957062E0,-2.640059967E0,8.597800328E0
1.424073908E1,-5.866151276E0,-6.271358643E0,-1.900897064E0,8.795173657E0
1.425071208E1,-5.284909973E0,-4.952900391E0,-1.119072876E0,7.328971265E0
1.426068608E1,-3.834426270E0,-3.415746918E0,-9.557624817E-1,5.223373789E0
1.427066008E1,-2.489323425E0,-2.380649414E0,-5.533992004E-1,3.488620562E0
1.428063308E1,-1.661095734E0,-1.275796967E0,-4.138893127E-1,2.134994449E0
1.429060708E1,-1.050066376E0,-4.031117249E-1,-4.796026611E-1,1.222766195E0
1.430058008E1,-5.120851135E-1,3.517684937E-2,-5.700146484E-1,7.670627573E-1
1.431055408E1,1.814227295E-1,3.162922668E-1,-6.680607605E-1,7.610914430E-1
1.432052808E1,7.581733704E-1,5.047503662E-1,-8.602610779E-1,1.252856302E0
1.433050108E1,1.462458801E0,9.174421692E-1,-2.540067902E0,3.071226274E0
1.434047508E1,2.553988953E0,1.673519897E0,-6.473288727E0,7.157303637E0
1.435044908E1,2.833757172E0,1.732197876E0,-5.728587341E0,6.621737092E0
1.436042208E1,2.131268005E0,1.122216339E0,-2.526595917E0,3.490753464E0
1.437039608E1,8.604107666E-1,-1.425036621E-1,1.567540283E0,1.793821764E0
1.438037008E1,-7.095245361E-1,-1.094074860E0,3.775448914E0,3.994300861E0
1.439034308E1,-1.376687164E0,-1.723066864E0,2.466570740E0,3.308806156E0
1.440031708E1,-1.427132263E0,-1.613345032E0,2.613565063E-1,2.169768631E0
1.441029108E1,-1.620530090E0,-8.915460205E-1,-9.894424438E-1,2.097610171E0
1.442026408E1,-1.604363708E0,-4.587959290E-1,-1.861528931E0,2.499953314E0
1.443023808E1,-1.193767548E0,-3.360511780E-1,-2.284549255E0,2.599456992E0
1.444021208E1,-5.984555054E-1,-4.394860840E-1,-2.176623688E0,2.299779922E0
1.445018508E1,-2.799179077E-2,-7.858657837E-1,-1.945504303E0,2.098417395E0
1.446015908E1,5.358856201E-1,-1.361568604E0,-1.801503754E0,2.320874455E0
1.447013208E1,2.694396973E-2,-2.087558899E0,-2.018702087E0,2.904098182E0
1.448010608E1,-7.599696350E-1,-2.961741028E0,-1.398541718E0,3.362347795E0
1.449008008E1,-1.163081360E-1,-4.626279602E0,1.268611908E0,4.798475457E0
1.450005308E1,1.802102509E0,-6.169720001E0,4.820575562E0,8.034361648E0
1.451002708E1,3.194806366E0,-5.859864349E0,6.754703522E0,9.495831589E0
1.452000108E1,4.071682892E0,-7.238647156E0,2.777623901E0,8.757385954E0
1.452997408E1,7.470365295E0,-1.308399170E1,-9.208700409E0,1.765778468E1
1.453994808E1,1.046518753E1,-1.903157364E1,-3.916755066E0,2.206947927E1
1.454992208E1,8.164172516E0,-1.947255661E1,6.305936737E0,2.203631121E1
1.455989508E1,7.509583740E0,-2.032697983E1,2.005379791E0,2.176238739E1
1.456986908E1,7.081024933E0,-2.357791946E1,-2.719694366E0,2.476804267E1
1.457984308E1,5.630092163E0,-2.954286530E1,-6.795119476E0,3.083265276E1
1.458981608E1,3.254981232E0,-3.528297867E1,-1.061936691E1,3.698992349E1
1.459979008E1,2.441423035E0,-3.552248062E1,-9.889634399E0,3.695418846E1
1.460976408E1,3.685036926E0,-3.330783600E1,-7.261250153E0,3.428873270E1
1.461973708E1,5.324577484E0,-3.066942261E1,-5.200784912E0,3.155967003E1
1.462971108E1,6.942113800E0,-2.663546127E1,-2.597847748E0,2.764759581E1
1.463968508E1,7.061116333E0,-2.345532440E1,-1.990410919E0,2.457586911E1
1.464965808E1,5.679639130E0,-2.097079102E1,-2.160457306E0,2.183345947E1
1.465963208E1,4.382286987E0,-1.812655563E1,-2.733316040E0,1.884800984E1
1.466960608E1,3.476221161E0,-1.555834625E1,-3.379522247E0,1.629623951E1
1.467957908E1,2.164349213E0,-1.360880035E1,-3.413800964E0,1.419640418E1
1.468955308E1,7.923023987E-1,-1.194486053E1,-3.336112518E0,1.242727174E1
1.469952708E1,-6.198609924E-1,-1.056637711E1,-3.374881897E0,1.110956258E1
1.470950008E1,-1.935325470E0,-9.306746521E0,-2.699037323E0,9.881589849E0
1.471947408E1,-2.757715302E0,-7.677833862E0,-1.233435059E0,8.250787147E0
1.472944708E1,-3.088677063E0,-5.795647888E0,-2.829116821E-1,6.573393299E0
1.473942108E1,-2.833008728E0,-3.944746857E0,-4.296066284E-1,4.875605406E0
1.474939508E1,-2.588716736E0,-2.453398132E0,-9.093589783E-1,3.680699728E0
1.475936808E1,-2.271526337E0,-1.446891174E0,-1.245410156E0,2.967216276E0
1.476934208E1,-1.958976288E0,-7.602690125E-1,-1.265169067E0,2.452804484E0
1.477931608E1,-1.497635651E0,-4.849914551E-2,-1.285676422E0,1.974393216E0
1.478928908E1,-8.649014282E-1,4.568499756E-1,-1.350791016E0,1.667753803E0
1.479926308E1,-2.457888794E-1,6.114784241E-1,-1.267414398E0,1.428515766E0
1.480923708E1,3.814068604E-1,6.590794373E-1,-1.297801208E0,1.504707571E0
1.481921008E1,1.289119263E0,7.279362488E-1,-2.336191864E0,2.765775132E0
1.482918408E1,2.837649078E0,8.346643066E-1,-5.962850189E0,6.656162496E0
1.483915808E1,3.604504395E0,5.414241028E-1,-6.324348450E0,7.299518840E0
1.484913108E1,2.485730896E0,-1.258882141E-1,-3.042572937E0,3.930897608E0
1.485910508E1,-9.041198730E-2,-6.929090881E-1,6.267466736E-1,9.386739182E-1
1.486907908E1,-1.766177216E0,-8.879534912E-1,3.607797546E0,4.113884599E0
1.487905208E1,-1.835183716E0,-1.418450317E0,2.143093414E0,3.157966111E0
1.488902608E1,-1.304836578E0,-1.394949188E0,1.271306305E0,2.294493725E0
1.489900008E1,-1.008452911E0,-1.081501007E0,1.197509766E0,1.902800920E0
1.490897308E1,-8.708889771E-1,-7.958949280E-1,9.765692139E-1,1.531529881E0
1.491894708E1,-6.221063232E-1,-5.522016907E-1,9.301657104E-1,1.247858659E0
1.492892008E1,-3.580554199E-1,-3.049159241E-1,1.071621552E0,1.170277811E0
1.493889408E1,-1.258882141E-1,-1.017883301E-1,1.011596375E0,1.024468609E0
1.494886808E1,-2.218386841E-1,-1.929487610E-1,5.748046875E-2,2.995757507E-1
1.495884108E1,-4.541555786E-1,-5.278024292E-1,-9.666897583E-1,1.191352921E0
1.496881508E1,8.292755127E-2,-1.175804901E0,-4.282594299E-1,1.254113346E0
1.497878908E1,2.633024597E-1,-2.365530853E0,2.969824219E-1,2.398596040E0
1.498876208E1,7.708969116E-2,-3.874692535E0,1.829196167E0,4.285457231E0
1.499873608E1,1.172212372E0,-5.182073822E0,3.174448700E0,6.189111042E0
1.500871008E1,3.386407928E0,-7.455995178E0,9.834548950E-1,8.247836461E0
1.501868308E1,6.285130005E0,-1.307411224E1,-6.197861481E0,1.577494079E1
1.502865708E1,6.375991058E0,-2.130190247E1,-6.810687103E0,2.325531701E1
1.503863108E1,3.070564728E0,-2.901536224E1,1.443897400E0,2.921308703E1
1.504860408E1,4.779261475E0,-3.652928696E1,-1.279539185E0,3.686281821E1
1.505857808E1,7.932604065E0,-3.865890839E1,-1.179801590E1,4.119017582E1
1.506855208E1,6.194867706E0,-3.444711685E1,-1.252071304E1,3.717187782E1
1.507852508E1,2.409988403E0,-3.176873657E1,-8.507408752E0,3.297630469E1
1.508849908E1,1.798210602E0,-3.026616119E1,-6.283184052E0,3.096372840E1
1.509847308E1,3.156935120E0,-2.894979858E1,-3.872297516E0,2.937774269E1
1.510844608E1,5.980214081E0,-2.787757828E1,-1.735640717E0,2.856457211E1
1.511842008E1,7.883955231E0,-2.538615921E1,-1.202449493E0,2.660939147E1
1.512839408E1,8.597820740E0,-2.193269073E1,-2.100581818E0,2.365117097E1
1.513836708E1,8.316106567E0,-1.911869247E1,-3.026256866E0,2.106751673E1
1.514834108E1,7.284601593E0,-1.636771317E1,-2.402953033E0,1.807599618E1
1.515831508E1,6.537505188E0,-1.359951965E1,-2.846331024E0,1.535537395E1
1.516828808E1,5.920488281E0,-1.114237930E1,-3.430266724E0,1.307560812E1
1.517826208E1,4.604724426E0,-9.122330017E0,-3.656446381E0,1.085310979E1
1.518823508E1,2.957998810E0,-7.489824829E0,-3.635939026E0,8.835569338E0
1.519820908E1,9.283694458E-1,-6.274951172E0,-2.933000793E0,6.988517417E0
1.520818308E1,-1.199755096E0,-5.321883087E0,-1.613943787E0,5.689170979E0
1.521815608E1,-2.512974243E0,-4.713548126E0,1.932481384E-1,5.345083753E0
1.522813008E1,-3.025957489E0,-4.093836823E0,1.688788147E0,5.363573814E0
1.523810408E1,-2.960842896E0,-2.840343475E0,2.166145477E0,4.639647394E0
1.524807708E1,-2.712509308E0,-1.439107361E0,1.865869904E0,3.593077683E0
1.525805108E1,-2.170935516E0,-3.385958862E-1,1.104553070E0,2.459196144E0
1.526802508E1,-1.401834869E0,3.556604004E-1,3.375480652E-1,1.485117510E0
1.527799808E1,-7.595205688E-1,6.571334839E-1,2.514770508E-2,1.004653332E0
1.528797208E1,-4.159849548E-1,7.105723572E-1,-5.343887329E-2,8.251134895E-1
1.529794608E1,-1.919009399E-1,6.620732117E-1,2.679428101E-2,6.898440707E-1
1.530791908E1,-8.352630615E-2,5.794450378E-1,5.523513794E-2,5.880341114E-1
1.531789308E1,3.592529297E-3,5.179229736E-1,-1.167572021E-2,5.180670182E-1
1.532786708E1,9.684860229E-2,5.123844910E-1,-2.245330811E-1,5.677434481E-1
1.533784008E1,2.007325745E-1,5.849835205E-1,-9.273216248E-1,1.114641055E0
1.534781408E1,2.616558838E-1,7.894583130E-1,-2.279010773E0,2.426025212E0
1.535778808E1,5.394781494E-1,8.009843445E-1,-1.360969849E0,1.668787441E0
1.536776108E1,7.403604126E-1,5.736071777E-1,7.451504517E-1,1.196832457E0
1.537773508E1,-8.337661743E-2,3.653901672E-1,1.213975525E0,1.270511003E0
1.538770908E1,-1.374292145E0,1.124162292E-1,-3.472778320E-2,1.379319516E0
1.539768208E1,-1.514550476E0,-1.209484863E-1,-1.288670197E0,1.992275723E0
1.540765608E1,-1.448088684E0,-3.909869385E-1,-1.844913483E0,2.377716842E0
1.541762908E1,-1.070274353E0,-8.207432556E-1,-2.172282715E0,2.556935446E0
1.542760308E1,-5.637277222E-1,-1.438508606E0,-3.022065582E0,3.394109064E0
1.543757708E1,-6.122268677E-2,-2.203118591E0,-3.787124634E0,4.381756809E0
1.544755008E1,2.532733154E-1,-2.764600983E0,-2.961741028E0,4.059442804E0
1.545752408E1,7.713459778E-1,-3.550167389E0,-9.554631042E-1,3.756537348E0
1.546749808E1,2.131567383E0,-4.919968872E0,1.941462708E0,5.702538966E0
1.547747108E1,3.456761627E0,-5.252128143E0,4.444707184E0,7.699965775E0
1.548744508E1,6.937473450E0,-6.397995300E0,-1.676214294E0,9.585018314E0
1.549741908E1,1.242356506E1,-1.259361145E1,-1.027568161E1,2.045809499E1
1.550739138E1,5.730832672E0,-2.009960266E1,6.824009399E0,2.198644070E1
1.551736538E1,5.435197449E-1,-2.785617279E1,9.847871246E0,2.955067418E1
1.552733937E1,1.182076859E1,-4.384906540E1,-1.352242996E1,4.738488386E1
1.553731238E1,9.771380310E0,-4.881618622E1,-1.426578415E1,5.178815026E1
1.554728638E1,5.378315735E0,-4.024246536E1,-5.915099487E0,4.102890080E1
1.555726038E1,5.287304993E0,-3.693988312E1,-7.779322815E0,3.811860992E1
1.556723338E1,3.309018860E0,-3.218232651E1,-5.709576874E0,3.285195600E1
1.557720737E1,2.457439728E0,-2.954196716E1,-5.319488068E0,3.011749968E1
1.558718138E1,2.962938538E0,-2.768403076E1,-4.094435577E0,2.814158785E1
1.559715438E1,3.156635742E0,-2.469220230E1,-3.497177582E0,2.513761036E1
1.560712837E1,4.443809052E0,-2.066048630E1,-3.406765594E0,2.140582128E1
1.561710238E1,6.101761322E0,-1.647968033E1,-2.877915344E0,1.780712643E1
1.562707538E1,7.259154510E0,-1.287876846E1,-2.667902069E0,1.502250654E1
1.563704937E1,7.464677124E0,-1.018467087E1,-3.012036438E0,1.298157497E1
1.564702338E1,5.756878510E0,-8.313412170E0,-2.541415100E0,1.042656524E1
1.565699638E1,2.881358185E0,-6.070177002E0,-1.331331482E0,6.849942871E0
1.566697037E1,-1.202000427E-1,-3.994892578E0,-7.333250427E-1,4.063419789E0
1.567694438E1,-2.413580933E0,-2.905308380E0,-4.487667847E-1,3.803627391E0
1.568691738E1,-3.452869720E0,-2.399210815E0,-5.777984619E-2,4.204980423E0
1.569689138E1,-3.724854126E0,-1.465302887E0,-2.679428101E-1,4.011663515E0
1.570686438E1,-3.149300995E0,-3.384461975E-1,-1.105002136E0,3.354649357E0
1.571683837E1,-1.951791229E0,7.482939148E-1,-4.258494415E0,4.743859976E0
1.572681238E1,-6.909631348E-1,1.958976288E0,-9.734407196E0,9.953577327E0
1.573678538E1,-7.138655090E-1,1.865121460E0,-5.658832397E0,6.000888778E0
1.574675937E1,-1.753902740E0,2.025737457E0,1.366957397E0,3.008049134E0
1.575673338E1,-2.335293732E0,2.385289764E0,3.848197632E0,5.094293777E0
1.576670638E1,-2.005679169E0,1.685195618E0,2.568059692E0,3.668455231E0
1.577668037E1,-1.018182678E0,5.147795105E-1,1.466201019E0,1.857804979E0
1.578665438E1,-3.656895447E-1,-1.845661926E-1,6.298901367E-1,7.513688221E-1
1.579662738E1,2.215393066E-2,-3.200344849E-1,-1.288819885E-1,3.457216150E-1
1.580660137E1,1.654060364E-1,-6.731501770E-1,-1.033151550E0,1.244143257E0
1.581657538E1,2.320175171E-1,-9.505233765E-1,-1.151854706E0,1.511322626E0
1.582654838E1,2.398013306E-1,-7.467970276E-1,-4.040098572E-1,8.822893195E-1
1.583652238E1,2.775228882E-1,-1.683998108E-1,1.034349060E-1,3.406996177E-1
1.584649638E1,5.746549988E-1,3.577560425E-2,2.004331970E-1,6.096570577E-1
1.585646937E1,6.484515381E-1,-6.750961304E-2,3.330574036E-1,7.321025742E-1
1.586644338E1,5.029541016E-1,-2.171983337E-1,2.216889954E-1,5.910025001E-1
1.587641738E1,2.564167786E-1,-2.915936279E-1,-1.387614441E-1,4.123483316E-1
1.588639037E1,-4.550537109E-2,-4.266128540E-1,-5.679190063E-1,7.117592738E-1
1.589636438E1,-1.922003174E-1,-6.828799438E-1,-8.692424011E-1,1.121984105E0
1.590633838E1,-1.820214844E-1,-1.004261627E0,-1.012494507E0,1.437643337E0
1.591631137E1,-2.001338196E-1,-1.454076233E0,-1.092278595E0,1.829607544E0
1.592628538E1,1.721420288E-2,-1.628164215E0,-1.541793823E-2,1.628328208E0
1.593625838E1,1.015637970E0,-2.902164917E0,8.071215820E-1,3.178919146E0
1.594623237E1,2.383792877E0,-4.876858521E0,8.764274597E-1,5.498576416E0
1.595620638E1,3.420836334E0,-5.088218994E0,2.978356476E0,6.816355409E0
1.596617938E1,4.147275696E0,-5.114264832E0,4.265380096E0,7.845321398E0
1.597615337E1,5.633535004E0,-6.796766052E0,1.873803406E0,9.024626563E0
1.598612738E1,5.538931732E0,-1.408271484E1,6.818321228E-1,1.514818528E1
1.599610037E1,5.171745300E0,-3.380375473E1,-1.511856079E-2,3.419709069E1
1.600607438E1,8.421038361E0,-4.930387207E1,-1.299148407E0,5.003472269E1
1.601604838E1,1.318338501E1,-4.372961380E1,-6.714886322E0,4.616460183E1
1.602602137E1,7.704328766E0,-4.012271439E1,-1.541599228E1,4.366739870E1
1.603599538E1,3.080444183E0,-3.770449310E1,-1.637250320E1,4.122107225E1
1.604596938E1,2.056723022E0,-3.210044678E1,-1.303833664E1,3.470831334E1
1.605594237E1,1.467398529E0,-2.948897736E1,-6.515650635E0,3.023585202E1
1.606591638E1,3.616329803E0,-2.669907898E1,-2.154320068E0,2.702886891E1
1.607589038E1,6.795269165E0,-2.253653503E1,-1.545086975E0,2.358937024E1
1.608586337E1,7.622449036E0,-1.932900513E1,-2.294728088E-1,2.077895152E1
1.609583738E1,7.066804504E0,-1.675046722E1,-8.999285889E-1,1.820241054E1
1.610581137E1,6.319857788E0,-1.390159149E1,-1.323996735E0,1.532800756E1
1.611578437E1,5.012925568E0,-1.127545258E1,-2.211501160E0,1.253618726E1
1.612575838E1,3.206033020E0,-9.237440643E0,-2.996468811E0,1.022681684E1
1.613573237E1,7.978408813E-1,-8.060438232E0,-3.037932587E0,8.650794702E0
1.614570538E1,-1.935774536E0,-7.441625061E0,-2.293829956E0,8.024130013E0
1.615567938E1,-3.974085846E0,-6.880292358E0,-1.209933929E0,8.037146344E0
1.616565337E1,-4.496948547E0,-5.862708435E0,-4.655319214E-1,7.403419237E0
1.617562638E1,-4.145928497E0,-4.513563995E0,9.385482788E-2,6.129420183E0
1.618560038E1,-3.648512878E0,-3.267704773E0,5.183720398E-1,4.925266519E0
1.619557437E1,-3.146456909E0,-2.007774811E0,5.520520020E-1,3.773077283E0
1.620554738E1,-2.581531677E0,-8.313711548E-1,8.637039185E-2,2.713474459E0
1.621552138E1,-1.712139587E0,1.212478638E-2,-3.501219177E-1,1.747613897E0
1.622549537E1,-8.536747742E-1,3.921844482E-1,-5.480104065E-1,1.087605014E0
1.623546838E1,-2.778222656E-1,4.803511047E-1,-4.863386536E-1,7.378669806E-1
1.624544238E1,7.694000244E-2,5.037025452E-1,-2.374063110E-1,5.621367934E-1
1.625541537E1,3.112028503E-1,5.514532471E-1,-3.203338623E-2,6.340142235E-1
1.626538938E1,6.044430542E-1,6.114784241E-1,1.725910950E-1,8.769520825E-1
1.627536337E1,9.840536499E-1,6.563850403E-1,2.859054565E-1,1.216940770E0
1.628533638E1,1.636397095E0,7.295828247E-1,1.718426514E-1,1.799893454E0
1.629531038E1,2.792742462E0,1.049766998E0,-9.454339600E-1,3.129739060E0
1.630528437E1,3.931424561E0,1.493893433E0,-2.824476471E0,5.066111329E0
1.631525738E1,3.742068329E0,1.171314240E0,-1.580862579E0,4.227786527E0
1.632523138E1,2.431393890E0,4.754113770E-1,-1.158590698E-1,2.480144260E0
1.633520537E1,1.019829254E0,-5.867797852E-2,2.326162720E-1,1.047666523E0
1.634517838E1,-1.679507446E-1,-3.620970154E-1,3.230282593E-1,5.134870568E-1
1.635515238E1,-7.872129822E-1,-2.254312134E-1,-6.436614990E-3,8.188802973E-1
1.636512637E1,-1.482367401E0,-1.904040527E-1,-2.864892426E0,3.231296245E0
1.637509938E1,-1.902393951E0,-9.442364502E-1,-6.097120972E0,6.456436274E0
