"Time (s)","Acceleration x (m/s^2)","Acceleration y (m/s^2)","Acceleration z (m/s^2)","Absolute acceleration (m/s^2)"
2.849583980E-4,-1.868115234E-1,-8.164471893E0,-1.832489319E0,8.369678425E0
1.025795832E-2,-7.439529419E-2,-8.207731934E0,-1.929038544E0,8.431701362E0
2.023195836E-2,-3.607498169E-2,-8.471932526E0,-2.017953644E0,8.709022852E0
3.020495840E-2,4.685256958E-2,-8.346194000E0,-1.620230713E0,8.502134850E0
4.017895833E-2,4.701722717E-1,-7.509883118E0,-5.400769043E-1,7.543943894E0
5.015195836E-2,9.428892517E-1,-7.161856842E0,8.590635681E-1,7.274560040E0
6.012595841E-2,4.728666687E-1,-7.606432343E0,1.149609375E0,7.707335310E0
7.009895833E-2,-3.016227722E-1,-8.362809448E0,5.876779175E-1,8.388857103E0
8.007295837E-2,-7.113208008E-1,-8.947493591E0,2.862048340E-1,8.980285745E0
9.004595841E-2,-1.165925446E0,-9.267528076E0,6.493496704E-1,9.363125214E0
1.000199583E-1,-1.049467621E0,-9.240584106E0,7.349716187E-1,9.328984950E0
1.099929584E-1,-8.693920898E-1,-9.463769989E0,-6.113287354E-1,9.523261407E0
1.199669583E-1,-5.505551147E-1,-9.896071014E0,-2.116748199E0,1.013488803E1
1.299399583E-1,6.676116943E-2,-9.778415680E0,-2.777025146E0,1.016532040E1
1.399139584E-1,5.653742981E-1,-9.692943420E0,-3.833228760E0,1.043869930E1
1.498869583E-1,5.360353088E-1,-9.988578644E0,-4.203858032E0,1.085041287E1
1.598609583E-1,3.622467041E-1,-1.010967682E1,-3.335813141E0,1.065196871E1
1.698339584E-1,2.588117981E-1,-9.789193268E0,-1.614243164E0,9.924770495E0
1.798079583E-1,3.585044861E-1,-9.116043091E0,2.754272461E-1,9.127246423E0
1.897809583E-1,5.578898621E-1,-8.347541199E0,1.632205811E0,8.523894707E0
1.997549584E-1,9.267228699E-1,-7.766449585E0,2.310445404E0,8.155655240E0
2.097279583E-1,1.354233856E0,-7.623047791E0,2.033970337E0,8.005113509E0
2.197019584E-1,1.932481384E0,-8.312364349E0,8.969348145E-1,8.581047572E0
2.296749584E-1,2.258503418E0,-9.472002869E0,-1.090632019E0,9.798426110E0
2.396489583E-1,1.873953094E0,-1.037223083E1,-3.115171967E0,1.099086753E1
2.496219584E-1,8.970845032E-1,-1.065274750E1,-3.529660034E0,1.125807665E1
2.595959584E-1,-2.814147949E-2,-1.065753754E1,-2.065854034E0,1.085595004E1
2.695689583E-1,-3.382965088E-1,-1.070513855E1,-3.367996216E-1,1.071577668E1
2.795429584E-1,-1.490899658E-1,-1.053344559E1,2.796185303E-1,1.053821096E1
2.895159584E-1,-6.692582703E-1,-1.005893234E1,-5.890251160E-1,1.009836507E1
2.994899583E-1,-1.536854095E0,-9.980495453E0,-1.930685120E0,1.028103862E1
3.094629584E-1,-2.087109833E0,-9.656419373E0,-1.526375885E0,9.996613721E0
3.194369584E-1,-2.678230591E0,-9.828411713E0,-9.523196411E-1,1.023120270E1
3.294099583E-1,-3.353476410E0,-1.006746460E1,-1.519490204E0,1.071953814E1
3.393837500E-1,-3.536994781E0,-1.047596512E1,-2.518063660E0,1.134005387E1
3.493567500E-1,-3.379522247E0,-1.155596924E1,-3.052751770E0,1.242098583E1
3.593307501E-1,-2.664908295E0,-1.302696030E1,-2.647394714E0,1.355773320E1
3.693037500E-1,-1.449136505E0,-1.423539734E1,-1.603764954E0,1.439856229E1
3.792777500E-1,-3.055146790E-1,-1.451711151E1,-1.059796143E0,1.455895030E1
3.892507501E-1,1.090931396E0,-1.478400650E1,-2.052382050E0,1.496560228E1
3.992247500E-1,2.698438568E0,-1.481589020E1,-3.583847351E0,1.548018523E1
4.091977500E-1,4.990771637E0,-1.357901230E1,-3.848646698E0,1.497028583E1
4.191717501E-1,6.940018158E0,-1.250469635E1,-3.751199341E0,1.478522165E1
4.291457500E-1,8.387358398E0,-1.187929688E1,-3.760629730E0,1.502024671E1
4.391187500E-1,8.595725098E0,-1.240320740E1,-3.071762238E0,1.540005737E1
4.490927500E-1,9.157955933E0,-1.293879364E1,-1.740879822E0,1.594713768E1
4.590657500E-1,1.095362183E1,-1.324879898E1,-1.123413849E0,1.722714614E1
4.690397501E-1,1.206056992E1,-1.380399445E1,-7.884104919E-1,1.834745760E1
4.790127500E-1,1.097921860E1,-1.458087891E1,-5.593867493E-1,1.826083745E1
4.889867500E-1,7.472311249E0,-1.385518799E1,-6.018983459E-1,1.575322034E1
4.989597501E-1,3.611988831E0,-1.189426575E1,4.008663940E-1,1.243707019E1
5.089337500E-1,1.507066040E0,-1.100885696E1,1.692230988E0,1.123965415E1
5.189067500E-1,1.106948090E0,-1.074794952E1,1.655706940E0,1.093092487E1
5.288807501E-1,6.282435608E-1,-1.074720108E1,3.088078308E-1,1.076997601E1
5.388537500E-1,-7.737409973E-1,-1.149010620E1,6.366261292E-1,1.153371183E1
5.488277500E-1,-9.723779297E-1,-1.200548447E1,2.381547546E-1,1.204715293E1
5.588007501E-1,-9.851014709E-1,-1.196132629E1,-2.016307068E0,1.217001421E1
5.687747500E-1,-3.206332397E-1,-1.185549637E1,-2.930605774E0,1.221654820E1
5.787477500E-1,-2.152523804E-1,-1.084195404E1,-3.584595795E0,1.142119206E1
5.887217501E-1,1.407073975E-2,-9.273216248E0,-3.311563568E0,9.846785812E0
5.986947500E-1,1.233884125E0,-8.063581696E0,-1.974543915E0,8.393011585E0
6.086687500E-1,2.383493500E0,-7.055727539E0,-1.024619293E0,7.517591174E0
6.186417501E-1,3.148253174E0,-5.708828430E0,-3.802093506E-1,6.530450156E0
6.286157500E-1,3.302133179E0,-4.327949982E0,-3.441343689E-1,5.454691837E0
6.385887500E-1,2.623743896E0,-3.401975555E0,-8.928932190E-1,4.388020968E0
6.485627501E-1,2.191891937E0,-2.759212189E0,-7.671546936E-1,3.606406590E0
6.585357500E-1,2.060764618E0,-2.401905212E0,-5.921685791E-1,3.219714752E0
6.685097500E-1,1.810784454E0,-2.459385681E0,-9.262738037E-1,3.191473238E0
6.784827500E-1,1.535656586E0,-2.997666321E0,-1.438508606E0,3.662451574E0
6.884567500E-1,1.508113861E0,-3.327131195E0,-1.958976288E0,4.145093184E0
6.984297500E-1,1.444047089E0,-3.154689789E0,-2.189047852E0,4.102349346E0
7.084037500E-1,1.224453735E0,-3.025209045E0,-2.474504242E0,4.095649883E0
7.183767500E-1,9.136999512E-1,-3.400179291E0,-3.122955780E0,4.706263870E0
7.283507501E-1,7.256909180E-1,-3.684587860E0,-3.572021942E0,5.182871382E0
7.383237500E-1,3.047662354E-1,-3.752696228E0,-4.177213440E0,5.623586361E0
7.482977500E-1,1.197509766E-1,-3.556753693E0,-4.686155090E0,5.884291517E0
7.582707501E-1,3.643423462E-1,-3.272794189E0,-5.057832184E0,6.035361924E0
7.682447500E-1,7.801776123E-1,-3.301384735E0,-5.513035583E0,6.473127499E0
7.782177500E-1,1.079405365E0,-4.013453979E0,-6.765481110E0,7.940066966E0
7.881917501E-1,1.413959656E0,-5.323829041E0,-8.099207611E0,9.794876288E0
7.981647500E-1,1.580862579E0,-7.215146027E0,-8.950487366E0,1.160468366E1
8.081387500E-1,2.216590576E0,-9.516460419E0,-9.645043030E0,1.372964485E1
8.181127501E-1,2.828967133E0,-1.164638123E1,-1.045830185E1,1.590651842E1
8.280857500E-1,3.355721741E0,-1.360071716E1,-1.119087845E1,1.792975561E1
8.380597500E-1,4.329895935E0,-1.481035172E1,-1.115136063E1,1.903805033E1
8.480327501E-1,4.596940613E0,-1.356688751E1,-1.048045578E1,1.774914795E1
8.580067500E-1,4.201612701E0,-1.029514114E1,-9.436975708E0,1.458423776E1
8.679797500E-1,4.039799194E0,-7.810907135E0,-8.221054230E0,1.203810535E1
8.779537500E-1,4.105512543E0,-6.549480286E0,-7.346872101E0,1.066430752E1
8.879267500E-1,5.142406311E0,-6.954238586E0,-7.066804504E0,1.116895263E1
8.979007500E-1,6.604416046E0,-9.421857147E0,-7.546556854E0,1.376009534E1
9.078737500E-1,7.598049774E0,-1.283775375E1,-7.097191315E0,1.651993966E1
9.178477500E-1,7.892637177E0,-1.502066437E1,-4.335135040E0,1.751306585E1
9.278207500E-1,6.632407837E0,-1.372061783E1,-3.218457184E0,1.557570717E1
9.377947500E-1,3.171305237E0,-9.289532318E0,-3.782783661E0,1.051960265E1
9.477677500E-1,1.731449432E0,-4.903054047E0,-1.984423370E0,5.565590017E0
9.577417501E-1,3.204236755E0,-2.578687592E0,-1.002315674E0,4.233367405E0
9.677147500E-1,4.351451111E0,-2.408641205E0,7.955955505E-1,5.036829509E0
9.776887500E-1,4.524491272E0,-2.969524841E0,3.382516022E0,6.382046199E0
9.876617501E-1,4.156257019E0,-4.579726410E0,3.405867462E0,7.060332823E0
9.976357500E-1,3.363206177E0,-7.594756622E0,2.129022675E0,8.574626609E0
1.007608750E0,1.983674927E0,-1.103071152E1,2.020797729E-1,1.120947809E1
1.017582750E0,1.164129181E0,-1.439990524E1,-1.179247742E0,1.449493336E1
1.027555750E0,7.363188171E-1,-1.620365433E1,-8.993298340E-1,1.624528772E1
1.037529750E0,7.858657837E-1,-1.461396011E1,1.847158813E0,1.475118337E1
1.047502750E0,8.406518555E-1,-1.266186951E1,3.923191681E0,1.328235928E1
1.057476750E0,1.657054138E-1,-1.189576263E1,3.042273560E0,1.227974166E1
1.067449750E0,-9.422904968E-1,-1.148381927E1,-2.354603577E-1,1.152481922E1
1.077423750E0,-1.947150879E0,-1.135538635E1,-3.177592163E0,1.195128812E1
1.087396750E0,-6.650669861E-1,-1.146301254E1,-1.694925385E0,1.160671111E1
1.097370750E0,6.900650024E-1,-1.107771378E1,7.484436035E-3,1.109918863E1
1.107343750E0,1.618284760E0,-1.017269577E1,-7.984396362E-1,1.033150960E1
1.117317750E0,1.851200409E0,-9.489217072E0,-1.688638458E0,9.814462972E0
1.127290750E0,2.104324036E0,-9.276060333E0,-2.104174347E0,9.741715693E0
1.137264750E0,2.458786926E0,-9.252858582E0,-1.645827484E0,9.714410594E0
1.147238750E0,2.377955017E0,-9.297615509E0,-7.533833313E-1,9.626417333E0
1.157211750E0,1.469793549E0,-9.405990143E0,1.534309387E-1,9.521369896E0
1.167185750E0,5.429209900E-1,-9.678872681E0,6.370751953E-1,9.714998938E0
1.177158750E0,-3.861968994E-2,-9.858948212E0,6.514453125E-1,9.880522877E0
1.187132750E0,-4.267625427E-1,-9.480086060E0,6.379733276E-1,9.511107608E0
1.197105750E0,-4.878355408E-1,-9.094487915E0,-1.404080200E-1,9.108644705E0
1.207079750E0,-6.503974915E-1,-8.841813354E0,-1.300495605E0,8.960578615E0
1.217052750E0,-1.164727936E0,-9.030720520E0,-2.165397034E0,9.359457708E0
1.227026750E0,-1.169368286E0,-9.641300812E0,-2.515518951E0,1.003244432E1
1.236999750E0,1.092727661E-2,-9.746831360E0,-3.378624115E0,1.031581029E1
1.246973750E0,5.409750366E-1,-1.014350647E1,-3.169059906E0,1.064078560E1
1.256946750E0,1.466051331E0,-1.021835083E1,-2.539169769E0,1.063068123E1
1.266920750E0,1.742676086E0,-9.333540802E0,-2.249522095E0,9.757676645E0
1.276893750E0,1.734592896E0,-8.171507263E0,-2.068548431E0,8.605883806E0
1.286867750E0,1.358574829E0,-7.342082062E0,-1.683249664E0,7.654098510E0
1.296840750E0,7.682025146E-1,-6.730903015E0,-9.674382019E-1,6.843327201E0
1.306814750E0,5.116360474E-1,-6.754553833E0,-3.341052246E-1,6.782137954E0
1.316787750E0,4.748126221E-1,-7.462282104E0,1.134640503E-1,7.478233436E0
1.326761750E0,7.102729797E-1,-8.434360657E0,2.519261169E-1,8.467962811E0
1.336734833E0,1.261426849E0,-9.607920227E0,3.083587646E-1,9.695277918E0
1.346708833E0,1.564546509E0,-1.034588562E1,3.323089600E-1,1.046879097E1
1.356681833E0,1.482068024E0,-1.069525909E1,6.077362061E-2,1.079762873E1
1.366655833E0,1.442699890E0,-1.123922791E1,-7.423063660E-1,1.135573184E1
1.376628833E0,1.582658844E0,-1.170191574E1,-2.054028625E0,1.198576967E1
1.386602833E0,1.679657135E0,-1.142544067E1,-3.136278076E0,1.196654432E1
1.396575833E0,1.740580444E0,-1.073986633E1,-3.348237305E0,1.138354260E1
1.406549833E0,1.554068298E0,-1.030936157E1,-2.789299622E0,1.079250929E1
1.416523833E0,7.491920471E-1,-1.024215134E1,-2.165397034E0,1.049532739E1
1.426496833E0,-5.450166321E-1,-1.065229843E1,-1.594184875E0,1.078470817E1
1.436470833E0,-2.105820923E0,-1.090287735E1,-1.049018555E0,1.115381801E1
1.446443833E0,-3.658092957E0,-1.073073532E1,-2.878514099E-1,1.134077524E1
1.456417833E0,-4.628973999E0,-1.071247330E1,1.878593445E-1,1.167132279E1
1.466390833E0,-4.219425659E0,-1.083222427E1,1.803749084E-1,1.162639973E1
1.476364833E0,-2.918181610E0,-1.161823975E1,-5.138813782E-1,1.199013564E1
1.486337833E0,-1.408570862E0,-1.268656815E1,-1.175655212E0,1.281855095E1
1.496311833E0,4.775070190E-1,-1.385054764E1,-1.413660278E0,1.393068980E1
1.506284833E0,1.710343323E0,-1.399050659E1,-1.805844727E0,1.420987770E1
1.516258833E0,8.288264465E-1,-1.388767044E1,-1.985770569E0,1.405338494E1
1.526231833E0,1.194515991E-1,-1.374711273E1,-1.219514008E0,1.380161554E1
1.536205833E0,7.667056274E-1,-1.314506470E1,-1.389859772E0,1.324055413E1
1.546178833E0,1.986668701E0,-1.200024536E1,-3.102897491E0,1.255311571E1
1.556152833E0,3.683090973E0,-1.028122009E1,-4.573289795E0,1.183991661E1
1.566125833E0,4.634213104E0,-9.279503174E0,-3.598367157E0,1.097876844E1
1.576099833E0,3.984863434E0,-9.707463226E0,-1.040336609E0,1.054496463E1
1.586072833E0,3.969744873E0,-1.110420868E1,4.028123474E-1,1.179934670E1
1.596046833E0,4.464615784E0,-1.215262848E1,3.085084534E-1,1.295045754E1
1.606019833E0,4.710254974E0,-1.299387909E1,-2.451901245E-1,1.382344074E1
1.615993833E0,4.478387146E0,-1.337094498E1,-1.099463654E0,1.414379515E1
1.625966833E0,3.971690826E0,-1.345536942E1,-1.833537140E0,1.414860956E1
1.635940833E0,3.949686584E0,-1.336765182E1,-1.984273682E0,1.407947021E1
1.645913833E0,4.506977692E0,-1.330208817E1,-2.177222443E0,1.421262449E1
1.655887833E0,4.481231232E0,-1.277129196E1,-2.416425018E0,1.374868872E1
1.665860833E0,3.779041443E0,-1.157018967E1,-2.179617462E0,1.236532149E1
1.675834833E0,4.220174103E0,-1.046144531E1,-5.879772949E-1,1.129590301E1
1.685807833E0,3.734434204E0,-9.799970856E0,2.351609802E0,1.074781356E1
1.695781833E0,1.903890839E0,-9.020990753E0,1.678309937E0,9.371221838E0
1.705754833E0,4.483177185E-1,-7.870183868E0,-2.527793427E0,8.278316405E0
1.715728833E0,-7.493417358E-1,-8.594078522E0,-3.401676178E0,9.273138600E0
1.725702833E0,-1.319356384E0,-9.334139557E0,-1.880389709E0,9.612633770E0
1.735675833E0,-1.941462708E0,-9.708061981E0,-9.949809265E-1,9.950162407E0
1.745649833E0,-1.968556366E0,-1.027508286E1,-4.951702881E-1,1.047366867E1
1.755622833E0,-1.493743744E0,-9.908794556E0,-9.482780457E-1,1.006552091E1
1.765596833E0,-7.671546936E-1,-8.943601685E0,-8.677455139E-1,9.018288069E0
1.775569833E0,-8.113128662E-2,-7.906707916E0,-6.897656250E-1,7.937152448E0
1.785543833E0,7.198530579E-1,-6.611451416E0,-6.653663635E-1,6.683725806E0
1.795516833E0,1.649270325E0,-5.297783203E0,-2.498304749E-1,5.554188936E0
1.805490833E0,2.391127625E0,-4.051774292E0,3.607498169E-2,4.704855751E0
1.815463833E0,2.367925873E0,-3.153043213E0,4.614903259E-1,3.970104251E0
1.825437833E0,2.210902405E0,-2.469863892E0,5.147795105E-1,3.354596105E0
1.835410833E0,2.114353180E0,-1.997595978E0,5.367837524E-1,2.957873536E0
1.845384833E0,1.656006317E0,-1.703008575E0,4.318519592E-1,2.414351102E0
1.855357833E0,1.029409332E0,-1.856140137E0,-1.329235840E-1,2.126642532E0
1.865331833E0,8.000862122E-1,-2.615660706E0,-1.003962250E0,2.913719114E0
1.875304833E0,5.471122742E-1,-3.368594971E0,-1.764680328E0,3.841986541E0
1.885278833E0,5.827381897E-1,-3.969445496E0,-2.273621979E0,4.611446437E0
1.895251833E0,6.827302551E-1,-4.617298279E0,-2.958597565E0,5.526197929E0
1.905225833E0,4.581971741E-1,-4.920118561E0,-4.104764099E0,6.423908437E0
1.915198833E0,5.231620789E-1,-5.359155579E0,-5.344635773E0,7.586789744E0
1.925172833E0,1.283431091E0,-6.282585297E0,-6.800508270E0,9.346923885E0
1.935145833E0,1.586251373E0,-7.829318848E0,-7.614066467E0,1.103577977E1
1.945119833E0,6.480024719E-1,-9.577234039E0,-8.493637390E0,1.281737864E1
1.955092833E0,7.268884277E-1,-1.131526978E1,-1.000923569E1,1.512443374E1
1.965066833E0,1.308129730E0,-1.277668076E1,-1.178663956E1,1.743214406E1
1.975039833E0,1.818867645E0,-1.405068146E1,-1.374277176E1,1.973812819E1
1.985013833E0,1.557660828E0,-1.430739761E1,-1.434856201E1,2.032262693E1
1.994986833E0,7.749385071E-1,-1.272578659E1,-1.292562103E1,1.815538083E1
2.004960833E0,1.636546783E0,-1.095287338E1,-1.017494110E1,1.503905406E1
2.014933833E0,3.923491058E0,-9.924511871E0,-6.483018494E0,1.248676286E1
2.024907833E0,5.742658081E0,-8.952133942E0,-3.620221710E0,1.123498238E1
2.034881833E0,5.982309723E0,-7.276219025E0,-3.220253448E0,9.954969874E0
2.044854833E0,4.765939178E0,-5.337450714E0,-4.405189362E0,8.402871515E0
2.054828833E0,2.927162933E0,-4.706512756E0,-5.810167694E0,8.029794132E0
2.064801833E0,1.868115234E-1,-6.896458740E0,-5.526806946E0,8.839775830E0
2.074775833E0,-8.867559814E-1,-1.031385223E1,-1.685045929E0,1.048814873E1
2.084748833E0,3.090623016E0,-1.138801849E1,-1.763333130E-1,1.180127151E1
2.094722833E0,5.009482727E0,-1.158231445E1,-7.719447327E-1,1.264281709E1
2.104695833E0,3.760929108E0,-1.222717346E1,9.506730652E-1,1.282778772E1
2.114669833E0,3.349584503E0,-1.342812607E1,-9.460327148E-2,1.383991459E1
2.124642833E0,5.118605804E0,-1.414753006E1,-2.735561371E0,1.529169802E1
2.134616833E0,6.482270050E0,-1.240709930E1,-8.300239563E-1,1.402301244E1
2.144589833E0,7.066205750E0,-1.030921188E1,-1.520837402E-1,1.249936970E1
2.154563833E0,6.859186249E0,-8.250542908E0,3.308120728E-2,1.072944494E1
2.164536833E0,5.401816864E0,-6.353837128E0,9.247769165E-1,8.390833333E0
2.174510833E0,3.202290802E0,-6.941664734E0,2.702929230E0,8.108464841E0
2.184483833E0,1.344953156E0,-9.542805634E0,3.905678101E0,1.039847872E1
2.194457833E0,5.822891235E-1,-1.117471207E1,3.581302643E0,1.174899906E1
2.204430833E0,-1.779798889E-1,-1.250544479E1,2.464624786E0,1.274724290E1
2.214404833E0,-1.736389160E0,-1.510224472E1,1.963466949E0,1.532801505E1
2.224377833E0,-3.385659485E0,-1.700374054E1,1.502425690E0,1.740250457E1
2.234351833E0,-2.706970825E0,-1.439646240E1,1.249152374E0,1.470191152E1
2.244324833E0,-1.600022736E0,-1.091365494E1,1.316661987E0,1.110862438E1
2.254298833E0,-1.572180634E0,-9.344917145E0,1.473386078E0,9.590104010E0
2.264271833E0,-1.554217987E0,-8.743168488E0,1.138382721E0,8.952904778E0
2.274245833E0,-1.211879883E0,-8.387358398E0,-1.427731018E0,8.593884431E0
2.284218833E0,6.735992432E-1,-7.446564789E0,-9.478439484E0,1.207252576E1
2.294192833E0,1.729353790E0,-7.651788025E0,-6.232439575E0,1.001917300E1
2.304165833E0,1.798809357E0,-7.586224365E0,-1.060993652E0,7.868432039E0
2.314139833E0,1.174158325E0,-8.302634583E0,-1.288819885E-1,8.386238689E0
2.324112833E0,1.043330383E-1,-9.570947113E0,-1.429527283E-1,9.572583220E0
2.334086708E0,-5.941145325E-1,-1.031415161E1,2.516267395E-1,1.033431234E1
2.344059708E0,7.679031372E-2,-9.928852844E0,5.926176453E-1,9.946819151E0
2.354033708E0,-9.580078125E-3,-9.577383728E0,6.466552734E-1,9.599194440E0
2.364006708E0,6.979985046E-1,-8.752598877E0,-3.266207886E-1,8.786459478E0
2.373980708E0,1.540596313E0,-8.312364349E0,-1.238674164E0,8.544188186E0
2.383953708E0,1.758992157E0,-8.297994232E0,-1.951342163E0,8.703935772E0
2.393927708E0,2.151176605E0,-8.288114777E0,-2.480940857E0,8.914901843E0
2.403901708E0,2.818189545E0,-8.074059906E0,-2.524051208E0,8.916471846E0
2.413874708E0,3.396736450E0,-7.835905151E0,-2.119292908E0,8.799467625E0
2.423848708E0,3.687431946E0,-7.600744171E0,-1.647024994E0,8.607041166E0
2.433821708E0,3.538791046E0,-7.575746155E0,-1.458417206E0,8.487753096E0
2.443795708E0,2.541265411E0,-8.019273834E0,-1.471739502E0,8.540070250E0
2.453768708E0,1.278191986E0,-8.710386658E0,-1.487756195E0,8.928495337E0
2.463742708E0,2.293231201E-1,-9.757908325E0,-1.225202179E0,9.837199010E0
2.473715708E0,-4.215234375E-1,-1.092218719E1,-9.942324829E-1,1.097544320E1
2.483689708E0,-5.182223511E-1,-1.149639313E1,-8.304730225E-1,1.153799353E1
2.493662708E0,-1.131646729E-1,-1.150567383E1,-9.812095642E-1,1.154799154E1
2.503636708E0,6.125262451E-1,-1.095781311E1,-1.306333466E0,1.105239176E1
2.513609708E0,1.401086426E0,-1.021805145E1,-1.505269775E0,1.042292933E1
2.523583708E0,1.614542542E0,-9.551786957E0,-1.761836243E0,9.846189549E0
2.533556708E0,8.502319336E-1,-9.313482513E0,-1.836830292E0,9.530886443E0
2.543530708E0,-4.108955383E-1,-9.630672913E0,-1.148561554E0,9.707620179E0
2.553503708E0,-1.870061188E0,-1.031804352E1,-3.733236694E-1,1.049278426E1
2.563477708E0,-3.361409912E0,-1.077893509E1,3.046165466E-1,1.129501259E1
2.573450708E0,-4.022135925E0,-1.087698120E1,3.718267822E-1,1.160278211E1
2.583424708E0,-4.102967834E0,-1.080812439E1,-2.842588806E-1,1.156419911E1
2.593397708E0,-3.543281708E0,-1.074779984E1,-2.238744507E0,1.153611822E1
2.603371708E0,-2.611319733E0,-1.084210373E1,-3.524271240E0,1.169575529E1
2.613344708E0,-2.150877228E0,-1.143621826E1,-3.971541138E0,1.229579196E1
2.623318708E0,-1.878144379E0,-1.232072891E1,-2.952160950E0,1.280792885E1
2.633291708E0,-1.312021637E0,-1.320104828E1,-1.813029785E0,1.338940452E1
2.643265708E0,-7.993377686E-1,-1.314790878E1,-1.787133636E0,1.329286624E1
2.653238708E0,-7.842192078E-1,-1.256921219E1,-1.599124603E0,1.269477429E1
2.663212708E0,-4.137396240E-1,-1.180729660E1,-1.130449219E0,1.186850239E1
2.673185708E0,9.160949707E-2,-1.091470276E1,-2.143542480E0,1.112357420E1
2.683159708E0,1.460363159E0,-9.715696106E0,-3.392844543E0,1.039417171E1
2.693132708E0,2.460433502E0,-9.621691589E0,-2.350561981E0,1.020567605E1
2.703106708E0,3.866010590E0,-1.076546310E1,-1.885179749E0,1.159289163E1
2.713079708E0,4.131408691E0,-1.194381271E1,-7.608677673E-1,1.266104734E1
2.723053708E0,4.073778534E0,-1.348560654E1,-2.185455322E-1,1.408918086E1
2.733026708E0,3.677851868E0,-1.487456818E1,-4.090992737E-1,1.532797231E1
2.743000708E0,2.679727478E0,-1.547631683E1,-5.107379150E-1,1.571490297E1
2.752973708E0,1.671274567E0,-1.509880188E1,-7.658074951E-1,1.521030697E1
2.762947708E0,9.036708069E-1,-1.509925095E1,-1.483265533E0,1.519881827E1
2.772920708E0,1.296004944E0,-1.520283554E1,-2.113005981E0,1.540359152E1
2.782894708E0,2.401905212E0,-1.531480270E1,-2.437231750E0,1.569243222E1
2.792868708E0,2.930156708E0,-1.525971725E1,-1.780247955E0,1.564014296E1
2.802841708E0,2.045646057E0,-1.476873825E1,1.343306580E0,1.497012925E1
2.812815708E0,7.089257812E-1,-1.326107346E1,1.550176392E0,1.337017920E1
2.822788708E0,3.891906738E-1,-1.219588852E1,5.984555054E-1,1.221676369E1
2.832762708E0,-5.249583435E-1,-1.123339005E1,-2.097288666E0,1.143954776E1
2.842735708E0,-1.529669037E0,-1.080587906E1,-3.151845703E0,1.135962327E1
2.852709708E0,-1.343605957E0,-1.066457291E1,-2.314936066E0,1.099533179E1
2.862682708E0,-1.084943848E0,-9.834998016E0,-1.416204987E0,9.995495270E0
2.872656708E0,-9.511221313E-1,-9.071136475E0,-2.531236267E-1,9.124375147E0
2.882629708E0,-6.114784241E-1,-7.759264526E0,1.090931396E0,7.859403487E0
2.892603708E0,-7.694000244E-2,-6.535858612E0,1.321302338E0,6.668523632E0
2.902576708E0,4.875361633E-1,-5.433700562E0,1.087638245E0,5.562890459E0
2.912550708E0,9.874964905E-1,-4.326602783E0,9.991722107E-1,4.548954393E0
2.922523708E0,1.499581604E0,-3.537144470E0,1.238524475E0,4.036592482E0
2.932497708E0,1.953886871E0,-2.995720367E0,1.130000153E0,3.750855205E0
2.942470708E0,2.018552399E0,-2.741698608E0,9.352551270E-1,3.530745983E0
2.952444708E0,1.673070831E0,-3.040028229E0,1.591041412E0,3.817374807E0
2.962417708E0,1.229543152E0,-3.011437683E0,1.504671021E0,3.583931942E0
2.972391708E0,1.517843628E0,-2.536774750E0,8.961863708E-1,3.089049275E0
2.982364708E0,2.031126251E0,-2.487826538E0,2.954855347E-1,3.225223470E0
2.992338708E0,2.324665833E0,-2.846031647E0,-4.480183411E-1,3.701984306E0
3.002311708E0,2.223625946E0,-3.359314270E0,-9.871971130E-1,4.147778062E0
3.012285708E0,1.868115234E0,-3.638633423E0,-2.149380341E0,4.620534987E0
3.022258708E0,1.637444916E0,-4.021537170E0,-3.568429413E0,5.620291411E0
3.032232708E0,1.231638794E0,-4.770280151E0,-5.255870361E0,7.203935042E0
3.042205708E0,7.797285461E-1,-5.839506683E0,-7.310647430E0,9.389003183E0
3.052179708E0,7.174580383E-1,-6.930587769E0,-9.006920013E0,1.138737902E1
3.062152708E0,1.152752838E0,-8.021519165E0,-9.980345764E0,1.285616235E1
3.072126708E0,1.871258698E0,-9.094936981E0,-1.098086517E1,1.438050374E1
3.082099708E0,2.227218475E0,-1.073028625E1,-1.109148514E1,1.559232464E1
3.092073708E0,2.385888519E0,-1.279673904E1,-1.019769379E1,1.653608033E1
3.102046708E0,2.950963440E0,-1.492606110E1,-9.000932465E0,1.767801658E1
3.112020708E0,3.506158905E0,-1.581536179E1,-8.011939087E0,1.807235421E1
3.121993708E0,4.216581573E0,-1.480406479E1,-7.013515320E0,1.691535668E1
3.131967708E0,5.362149353E0,-1.255124954E1,-5.704936523E0,1.479299873E1
3.141940708E0,6.971752167E0,-1.023017624E1,-5.978268127E0,1.374778251E1
3.151914708E0,8.145910492E0,-9.445358276E0,-7.549400940E0,1.457957836E1
3.161887708E0,6.975494385E0,-1.211805038E1,-5.489235077E0,1.502119731E1
3.171861708E0,5.368885345E0,-1.689491684E1,-2.626438293E0,1.792097439E1
3.181834708E0,5.286855927E0,-1.819975342E1,-3.310665436E0,1.923908459E1
3.191808708E0,2.152374115E0,-1.543500275E1,-3.837420044E0,1.604985410E1
3.201781708E0,-4.007915497E0,-1.007150620E1,-1.280137939E0,1.091500695E1
3.211755708E0,-4.069736938E0,-4.932842102E0,2.182611237E0,6.757180016E0
3.221728708E0,-8.981323242E-3,-1.031055908E0,6.615642700E0,6.695512324E0
3.231702708E0,2.938389587E0,1.429377594E0,6.162235565E0,6.974983931E0
3.241675708E0,3.302432556E0,5.942642212E-1,2.180066528E0,4.001487326E0
3.251649708E0,2.105072479E0,-2.767445068E0,5.843847656E-1,3.525845700E0
3.261622708E0,1.240021362E0,-6.448440399E0,5.966592407E-1,6.593636236E0
3.271596708E0,1.022074585E0,-1.074495575E1,1.661694489E0,1.092061990E1
3.281569708E0,1.018931122E0,-1.499416946E1,1.544039154E0,1.510785873E1
3.291543708E0,-2.073188782E-1,-1.992072464E1,-6.481521606E-1,1.993234438E1
3.301516708E0,-2.386038208E0,-2.312196762E1,-4.920268250E0,2.375978966E1
3.311490708E0,-1.708996124E0,-1.853804993E1,-7.243437195E0,1.997616943E1
3.321463708E0,7.048841858E-1,-1.220951019E1,-4.903203735E0,1.317613023E1
3.331437708E0,2.056723022E0,-1.002495300E1,-1.671873322E0,1.036942393E1
3.341411083E0,1.031055908E0,-9.513017578E0,3.011737061E-1,9.573467780E0
3.351385083E0,-9.774673462E-2,-8.604107666E0,3.275189209E-1,8.610893786E0
3.361359083E0,-3.917353821E-1,-7.780969391E0,-1.013093262E0,7.856417710E0
3.371332083E0,-2.386038208E-1,-7.486681366E0,-1.913620605E0,7.731059014E0
3.381306083E0,-1.706451416E-2,-7.726632385E0,-1.421743469E0,7.856366444E0
3.391279083E0,4.834945679E-2,-8.736881561E0,-1.453477478E-1,8.738224251E0
3.401253083E0,2.941383362E-1,-9.563911743E0,6.234535217E-1,9.588723559E0
3.411226083E0,3.162922668E-1,-9.884095917E0,5.704637146E-1,9.905595476E0
3.421200083E0,6.783892822E-1,-9.662855988E0,-1.489402771E-1,9.687785147E0
3.431173083E0,1.103654938E0,-9.144633636E0,-7.818241882E-1,9.244113134E0
3.441147083E0,2.079924774E0,-8.797056427E0,-1.506167908E0,9.164214675E0
3.451120083E0,2.292183380E0,-8.606802063E0,-2.046993256E0,9.139000371E0
3.461094083E0,2.575993195E0,-8.072413330E0,-2.400857391E0,8.807026406E0
3.471067083E0,3.231779480E0,-7.516768799E0,-2.289788361E0,8.496431164E0
3.481041083E0,4.408482513E0,-7.137457581E0,-2.182311859E0,8.668362235E0
3.491014083E0,5.340893555E0,-7.364984436E0,-2.181713104E0,9.355640639E0
3.500988083E0,5.000052338E0,-7.984246674E0,-1.836231537E0,9.597940643E0
3.510961083E0,3.726800079E0,-8.568481750E0,-1.287023621E0,9.432091398E0
3.520935083E0,2.024240570E0,-8.968000946E0,-4.541555786E-1,9.204827437E0
3.530908083E0,8.390052795E-1,-9.360185394E0,-8.547225952E-2,9.398101190E0
3.540882083E0,-4.080514526E-1,-9.793234863E0,-1.196012878E-1,9.802461912E0
3.550855083E0,-9.503736877E-1,-1.007360184E1,-1.210981750E-1,1.011905771E1
3.560829083E0,-1.163979492E0,-1.037447617E1,1.288819885E-1,1.044036467E1
3.570802083E0,-1.275347900E0,-1.063882645E1,3.350033569E-1,1.072023170E1
3.580776083E0,-1.022673340E0,-1.084195404E1,-2.662962341E-1,1.089333474E1
3.590749083E0,-3.685336304E-1,-1.072893906E1,-1.924697571E0,1.090643897E1
3.600723083E0,5.821394348E-1,-1.002465363E1,-4.229305115E0,1.089585189E1
3.610696083E0,9.695338440E-1,-9.560468903E0,-5.780080261E0,1.121391499E1
3.620670083E0,5.325924683E-1,-9.470955048E0,-5.136418762E0,1.078728149E1
3.630643083E0,-5.384303284E-1,-9.607770538E0,-3.029699707E0,1.008852032E1
3.640617083E0,-1.843416595E0,-9.971963196E0,-8.517288208E-1,1.017662403E1
3.650590083E0,-2.810854797E0,-1.058613602E1,3.625460815E-1,1.095895160E1
3.660564083E0,-3.055146790E0,-1.092772568E1,1.460213470E0,1.144033801E1
3.670537083E0,-3.044369202E0,-1.098505646E1,1.687590637E0,1.152335070E1
3.680511083E0,-2.005230103E0,-1.072684341E1,3.712280273E-2,1.091272173E1
3.690484083E0,-5.757028198E-1,-1.041713745E1,-2.109263763E0,1.064411481E1
3.700458083E0,4.397854614E-1,-1.005010071E1,-4.259542236E0,1.092435973E1
3.710431083E0,3.836521912E-1,-9.921518097E0,-4.425846405E0,1.087068658E1
3.720405083E0,-6.035449219E-1,-1.073507629E1,-2.854863281E0,1.112458421E1
3.730378083E0,-1.904339905E0,-1.198527649E1,-1.263073425E0,1.220117689E1
3.740352083E0,-2.260000305E0,-1.274270142E1,-7.149133301E-1,1.296129399E1
3.750325083E0,-1.422791290E0,-1.244407242E1,-1.544937286E0,1.262006754E1
3.760299083E0,-3.001258850E-1,-1.172242310E1,-2.457290039E0,1.198096628E1
3.770272083E0,4.698728943E-1,-1.185130508E1,-2.762056274E0,1.217797880E1
3.780246083E0,8.758287048E-1,-1.226190125E1,-2.113305359E0,1.247346614E1
3.790219083E0,2.609373779E0,-1.229393463E1,-1.595981140E0,1.266873380E1
3.800193083E0,3.758983154E0,-1.273237289E1,-1.424737244E0,1.335189687E1
3.810166083E0,4.131558380E0,-1.293535080E1,-3.983216858E-1,1.358498197E1
3.820140083E0,3.969146118E0,-1.342618011E1,-2.456391907E-1,1.400274159E1
3.830113083E0,2.973566437E0,-1.446307388E1,-9.226812744E-1,1.479438894E1
3.840087083E0,1.338067474E0,-1.589798996E1,-2.388433228E0,1.613199066E1
3.850060083E0,6.074368286E-1,-1.702664291E1,-3.301085358E0,1.735432836E1
3.860034083E0,1.097817078E0,-1.791624298E1,-2.911894684E0,1.818450152E1
3.870007083E0,7.144642639E-1,-1.741972549E1,-5.739065552E-1,1.744381450E1
3.879981083E0,-5.284011841E-2,-1.586565720E1,-4.831951904E-1,1.587310140E1
3.889954083E0,-4.222718811E-1,-1.412163391E1,1.570234680E-1,1.412881857E1
3.899928083E0,-3.481759644E-1,-1.296394135E1,2.375260620E0,1.318434165E1
3.909901083E0,-1.381177826E0,-1.222717346E1,4.523742828E0,1.311013624E1
3.919875083E0,-3.479065247E0,-1.156569901E1,2.005978546E0,1.224308941E1
3.929848083E0,-3.336860962E0,-1.192150909E1,-2.484982452E0,1.262664476E1
3.939822083E0,-2.871179352E0,-1.222896973E1,-2.889441376E0,1.288954006E1
3.949795083E0,-2.722239075E0,-1.192285629E1,-1.731599121E0,1.235166075E1
3.959769083E0,-1.363364868E0,-1.061772034E1,-5.569917297E-1,1.071937445E1
3.969742083E0,-4.655319214E-1,-9.092691650E0,7.714956665E-1,9.137229721E0
3.979716083E0,1.085542603E0,-7.324568481E0,1.834285583E0,7.628388413E0
3.989689083E0,1.447040863E0,-6.047274628E0,2.069895630E0,6.553466686E0
3.999663083E0,1.122665405E0,-4.665048981E0,1.904938660E0,5.162543065E0
4.009636083E0,1.975891113E0,-3.709735565E0,2.069895630E0,4.685162919E0
4.019610083E0,2.792592773E0,-3.616629181E0,2.121987305E0,5.037996740E0
4.029583083E0,3.506757660E0,-3.332819366E0,1.946851501E0,5.214907955E0
4.039557083E0,3.728746033E0,-3.118016052E0,2.054328003E0,5.276915256E0
4.049530083E0,3.934568024E0,-2.730621643E0,1.351240082E0,4.976240534E0
4.059504083E0,4.194876709E0,-2.244582367E0,6.216572571E-1,4.798082779E0
4.069477083E0,4.289330292E0,-2.326761475E0,1.064286804E-1,4.880932326E0
4.079451083E0,3.985761566E0,-2.696492615E0,-5.556445312E-1,4.844182958E0
4.089424083E0,3.686683502E0,-3.304378510E0,-1.650168457E0,5.218582999E0
4.099398083E0,2.944826202E0,-4.067192230E0,-2.703677673E0,5.702975273E0
4.109371083E0,2.551893311E0,-4.746629333E0,-3.407514038E0,6.376033361E0
4.119345083E0,3.293451233E0,-5.134772186E0,-4.703219604E0,7.702790473E0
4.129318083E0,3.855083313E0,-5.656886444E0,-6.325695648E0,9.320754102E0
4.139292083E0,4.129013672E0,-6.790778503E0,-7.136559448E0,1.068147496E1
4.149265083E0,3.953578491E0,-8.067174225E0,-7.465874634E0,1.168115435E1
4.159239083E0,3.673361206E0,-9.153465271E0,-8.595276031E0,1.308274738E1
4.169212083E0,3.611839142E0,-1.004725662E1,-1.033091675E1,1.485666815E1
4.179186083E0,2.716401215E0,-1.082054855E1,-1.151869675E1,1.603569398E1
4.189159083E0,2.017803955E-1,-1.202075272E1,-1.063717987E1,1.605268846E1
4.199133083E0,-2.636916504E0,-1.320344330E1,-8.799301758E0,1.608452533E1
4.209106083E0,-4.444108429E0,-1.321571777E1,-8.489296417E0,1.632401451E1
4.219080083E0,-4.447551270E0,-1.176718002E1,-9.514664154E0,1.577263681E1
4.229053083E0,-2.919229431E0,-9.513766022E0,-9.626930695E0,1.384599000E1
4.239027083E0,-1.677561493E0,-7.793842621E0,-8.727451172E0,1.182060063E1
4.249000083E0,-1.710493011E0,-5.816903687E0,-8.677006073E0,1.058548956E1
4.258974083E0,-3.706143036E0,-4.817132721E0,-8.361611938E0,1.033715716E1
4.268947083E0,-4.571643219E0,-6.230792999E0,-1.819017334E0,7.939239711E0
4.278921083E0,-1.119821320E0,-8.137228546E0,4.849465485E0,9.538647896E0
4.288894083E0,4.652325439E0,-9.201814728E0,7.637717285E0,1.283168935E1
4.298868083E0,8.124954071E0,-1.111603409E1,4.782255249E0,1.457570094E1
4.308841083E0,8.765472107E0,-1.354608078E1,-1.686393127E0,1.622263011E1
4.318815083E0,7.021448822E0,-1.780637146E1,-1.571956100E1,2.476837109E1
4.328788083E0,7.823480988E0,-1.967763016E1,-1.314895660E1,2.492611167E1
4.338762458E0,9.061406708E0,-1.124177261E1,3.959416351E0,1.497209140E1
4.348735458E0,8.733588409E0,-2.191442871E0,4.233496399E0,9.949898498E0
4.358709458E0,8.573870544E0,2.664459229E-2,-1.715881805E0,8.743924543E0
4.368682458E0,8.309071198E0,-1.121318207E0,-3.215613098E0,8.979876741E0
4.378656458E0,5.064568176E0,-4.896916809E0,-5.272036743E-1,7.064530328E0
4.388629458E0,-3.739224243E-1,-1.022508682E1,3.161575470E0,1.070923797E1
4.398603458E0,-1.083147583E0,-1.269659729E1,5.312303009E0,1.380570008E1
4.408576458E0,2.230361938E-2,-1.281964142E1,5.382507019E0,1.390377954E1
4.418550458E0,1.207987976E-1,-1.393497208E1,3.972439270E0,1.449062845E1
4.428523458E0,-9.135502625E-1,-1.582000214E1,2.545905762E0,1.604956940E1
4.438497458E0,-3.815116425E0,-1.748843262E1,-1.064286804E0,1.793134393E1
4.448470458E0,-4.892725525E0,-1.655153091E1,-3.731141052E0,1.765823752E1
4.458444458E0,-2.760409698E0,-1.287098465E1,-2.003433838E0,1.331524895E1
4.468417458E0,-4.869374084E-1,-9.398206329E0,-1.656455383E0,9.555481918E0
4.478391458E0,9.285191345E-1,-7.815697174E0,-2.398312683E0,8.227950767E0
4.488364458E0,1.549128571E0,-7.723039856E0,-2.829565887E0,8.369682614E0
4.498338458E0,1.848356323E0,-8.174501038E0,-1.221909027E0,8.469471647E0
4.508311458E0,2.341430969E0,-8.666078796E0,-1.969903564E-1,8.978976884E0
4.518285458E0,1.979483643E0,-8.990454254E0,-3.884422302E-1,9.213984510E0
4.528258458E0,9.449848938E-1,-9.257798309E0,-1.666035461E-1,9.307393982E0
4.538232458E0,6.286926270E-2,-9.140891418E0,3.583547974E-1,9.148129133E0
4.548205458E0,-3.369493103E-1,-8.545878754E0,9.964778137E-1,8.610374356E0
4.558179458E0,2.559677124E-2,-7.870333557E0,1.052461395E0,7.940433268E0
4.568152458E0,5.309458923E-1,-7.432643738E0,2.582130432E-1,7.456055958E0
4.578126458E0,1.097966766E0,-7.458988953E0,-3.390449524E-1,7.546986067E0
4.588099458E0,1.443148956E0,-7.710615692E0,-8.755293274E-1,7.893213849E0
4.598073458E0,2.284100189E0,-7.930358734E0,-1.091679840E0,8.324630214E0
4.608046458E0,3.247646484E0,-8.275840302E0,-1.759890289E0,9.062778504E0
4.618020458E0,3.807781677E0,-8.270152130E0,-2.340083771E0,9.400564324E0
4.627993458E0,3.568878479E0,-7.884104919E0,-2.733316040E0,9.075627832E0
4.637967458E0,2.786305847E0,-7.647447052E0,-2.500101013E0,8.514543544E0
4.647940458E0,1.481169891E0,-7.939938812E0,-1.379082184E0,8.193800111E0
4.657914458E0,3.227288818E-1,-8.619375916E0,-2.278262329E-1,8.628423952E0
4.667887458E0,-3.626957703E-1,-9.483528900E0,2.466870117E-1,9.493667526E0
4.677861458E0,-8.255332947E-1,-1.045470932E1,-1.755848694E-1,1.048872167E1
4.687834458E0,-1.128652954E0,-1.123563538E1,-1.344504089E0,1.137194139E1
4.697808458E0,-1.275647278E0,-1.107516907E1,-2.524799652E0,1.143071560E1
4.707781458E0,-1.076710968E0,-1.006671616E1,-2.837499390E0,1.051425145E1
4.717755458E0,-3.270698547E-1,-9.353599091E0,-2.216740265E0,9.618249739E0
4.727728458E0,1.954934692E-1,-9.357790375E0,-1.706152039E0,9.514063967E0
4.737702458E0,-2.686912537E-1,-9.921368408E0,-1.247655487E0,1.000311903E1
4.747675458E0,-1.153800659E0,-1.073313034E1,-6.273454285E-1,1.081318201E1
4.757649458E0,-1.994003448E0,-1.103984253E1,-7.375163269E-1,1.124269110E1
4.767622458E0,-2.551294556E0,-1.106963058E1,-1.410516815E0,1.144706875E1
4.777596458E0,-2.514171753E0,-1.092518097E1,-2.686463470E0,1.152812755E1
4.787569458E0,-2.242786102E0,-1.052311707E1,-3.934118958E0,1.145615006E1
4.797543458E0,-2.029180298E0,-1.049362839E1,-4.047882385E0,1.142887401E1
4.807517458E0,-1.466650085E0,-1.037477554E1,-3.447181549E0,1.103041661E1
4.817490458E0,-8.981323242E-1,-1.034932846E1,-2.536774750E0,1.069347780E1
4.827463458E0,-4.737648010E-1,-1.067969147E1,-1.825004883E0,1.084485619E1
4.837437458E0,-1.269360352E-1,-1.134281250E1,-1.518143005E0,1.144466104E1
4.847410458E0,2.745291138E-1,-1.122201370E1,-1.616039429E0,1.134109965E1
4.857384458E0,8.749305725E-1,-1.033256332E1,-2.349214783E0,1.063231764E1
4.867357458E0,9.846524048E-1,-1.104583008E1,-2.230212250E0,1.131166430E1
4.877331458E0,1.552870789E0,-1.338217163E1,-7.951464844E-1,1.349541341E1
4.887304458E0,1.925595703E0,-1.558993057E1,-3.233276367E-1,1.571172794E1
4.897278458E0,2.173031158E0,-1.597507965E1,9.306147766E-1,1.614903335E1
4.907251458E0,3.619772644E0,-1.588826019E1,1.598675537E0,1.637361687E1
4.917225458E0,5.120402069E0,-1.646351395E1,1.245260468E0,1.728630910E1
4.927198458E0,5.741161194E0,-1.685569839E1,5.156776428E-1,1.781407937E1
4.937172458E0,4.878654785E0,-1.687695419E1,-7.547305298E-1,1.758415405E1
4.947145458E0,4.325854340E0,-1.640573410E1,-1.542242889E0,1.703642099E1
4.957119458E0,4.431384888E0,-1.522064850E1,-1.640588379E0,1.593727841E1
4.967092458E0,4.325704651E0,-1.391072250E1,-2.011966095E0,1.470605076E1
4.977066458E0,4.277504883E0,-1.277338760E1,-2.579885101E0,1.371540324E1
4.987039458E0,3.766617279E0,-1.152707932E1,-2.813848572E0,1.244904442E1
4.997013458E0,4.280348969E0,-1.048659302E1,-1.836081848E0,1.147437218E1
5.006986458E0,3.780388641E0,-9.868378601E0,1.538800049E0,1.067914510E1
5.016960458E0,2.142494659E0,-9.507329407E0,4.321663055E0,1.066097404E1
5.026933458E0,1.399140472E0,-8.631201324E0,3.337160339E0,9.359052810E0
5.036907458E0,6.361770630E-1,-7.395820313E0,-7.217990112E-1,7.458141401E0
5.046880458E0,1.407073975E-2,-7.391928406E0,-2.269281006E0,7.732427809E0
5.056854458E0,-9.885443115E-1,-7.554789734E0,-2.223476257E0,7.936996563E0
5.066827458E0,-1.572480011E0,-7.887996826E0,-8.500822449E-1,8.088005140E0
5.076801458E0,-1.990111542E0,-8.140970764E0,4.872367859E-1,8.394840595E0
5.086774458E0,-1.820364532E0,-7.726782074E0,1.863624573E0,8.154139121E0
5.096748458E0,-1.174757080E0,-6.675069122E0,2.651585999E0,7.277878145E0
5.106721458E0,-7.469467163E-2,-5.892197113E0,3.368894348E0,6.787710604E0
5.116695458E0,6.622229004E-1,-4.659061432E0,3.046614532E0,5.606001490E0
5.126668458E0,1.060095520E0,-3.279829559E0,2.681823120E0,4.367294322E0
5.136642458E0,1.041534119E0,-2.189646606E0,2.338137817E0,3.368417141E0
5.146615458E0,8.186476135E-1,-1.371298370E0,1.931134186E0,2.505977330E0
5.156589458E0,6.114784241E-1,-1.255139923E0,1.471140747E0,2.028185689E0
5.166562458E0,7.194039917E-1,-1.299298096E0,1.024619293E0,1.804317694E0
5.176536458E0,1.056502991E0,-1.166075134E0,-1.318757629E-1,1.579025334E0
5.186509458E0,1.107397156E0,-1.433119812E0,-1.566043396E0,2.394295883E0
5.196483458E0,1.060843964E0,-1.782493286E0,-2.766546936E0,3.457810605E0
5.206456458E0,7.526348877E-1,-2.221829681E0,-3.651057587E0,4.339724405E0
5.216430458E0,1.294957123E0,-3.352727966E0,-4.738845520E0,5.947634457E0
5.226403458E0,2.111509094E0,-5.239703979E0,-6.242169342E0,8.418886301E0
5.236377458E0,2.608026581E0,-7.787256317E0,-8.354875946E0,1.171525141E1
5.246350458E0,2.501298523E0,-1.093805420E1,-1.121976837E1,1.586759989E1
5.256324458E0,2.798430634E0,-1.403301819E1,-1.326556412E1,1.951235518E1
5.266297458E0,3.140469360E0,-1.613075592E1,-1.405741745E1,2.162579062E1
5.276271458E0,1.955084381E0,-1.622296417E1,-1.316437454E1,2.098350968E1
5.286244458E0,8.614585876E-1,-1.424797119E1,-1.118878281E1,1.813658332E1
5.296218458E0,9.743238831E-1,-1.196387100E1,-8.556356964E0,1.474092130E1
5.306191458E0,1.489402771E0,-1.048958679E1,-6.529571686E0,1.244528256E1
5.316165458E0,2.573149109E0,-8.750054169E0,-5.877228241E0,1.085017770E1
5.326138458E0,4.098477173E0,-6.786437531E0,-5.925877075E0,9.897942645E0
5.336111458E0,4.434678040E0,-4.889731750E0,-4.818030853E0,8.172470080E0
5.346084458E0,1.834135895E0,-3.769161987E0,-1.890418854E0,4.598295337E0
5.356058458E0,4.619393921E-1,-3.029550018E0,1.719474335E0,3.513993925E0
5.366031458E0,3.517385559E0,-2.441123657E0,5.010979614E0,6.590978878E0
5.376005458E0,6.933581543E0,-3.697311401E0,6.054908752E0,9.920009305E0
5.385978458E0,8.908125458E0,-6.628216553E0,4.324656830E0,1.191598131E1
5.395952458E0,1.153082153E1,-1.102128113E1,-3.828139343E0,1.640375365E1
5.405925458E0,1.402239029E1,-2.129606461E1,-1.457953171E1,2.937196864E1
5.415899458E0,8.767717438E0,-2.899156174E1,-4.092639313E0,3.056359301E1
5.425872458E0,4.549638977E0,-2.539618835E1,4.348157959E0,2.616432830E1
5.435846458E0,4.629872131E0,-1.555654999E1,-2.095642090E-3,1.623089547E1
5.445819458E0,4.432732086E0,-1.121887024E1,-1.272503815E0,1.212977449E1
5.455793458E0,2.248474274E0,-1.161614410E1,2.563569031E0,1.210629285E1
5.465766458E0,3.391946411E-1,-1.261307098E1,6.555467834E0,1.421895816E1
5.475740458E0,-4.611909485E-1,-1.239332794E1,6.421945496E0,1.396598219E1
5.485713458E0,-1.300046539E0,-1.352662125E1,4.997657318E0,1.447881839E1
5.495687458E0,-3.026406555E0,-1.485046829E1,3.569327545E0,1.557034503E1
5.505660458E0,-4.661157074E0,-1.515777924E1,2.301314392E0,1.602437845E1
5.515634458E0,-5.029091949E0,-1.354817642E1,1.266067200E0,1.450681827E1
5.525607458E0,-4.510420532E0,-1.128578110E1,-8.707392883E-1,1.218486501E1
5.535581458E0,-3.922293549E0,-9.731712799E0,-2.261197815E0,1.073329568E1
5.545554458E0,-3.056793365E0,-8.839568024E0,-2.145189056E0,9.596029628E0
5.555528458E0,-1.479673004E0,-8.402476959E0,-1.301543427E0,8.630473135E0
5.565501458E0,2.490820312E-1,-8.460256805E0,9.041198730E-2,8.464405555E0
5.575475458E0,1.982178040E0,-8.741222534E0,5.903723145E-1,8.982568711E0
5.585448458E0,3.697161713E0,-9.495953064E0,-4.306544495E-1,1.019939177E1
5.595422458E0,3.875291290E0,-9.938732300E0,-3.218008118E0,1.114234529E1
5.605395458E0,2.809357910E0,-9.596843262E0,-4.250560913E0,1.086550323E1
5.615369458E0,2.574196930E0,-9.326355743E0,-4.276007996E0,1.057788474E1
5.625342458E0,2.527194672E0,-8.680897980E0,-3.157833252E0,9.576879110E0
5.635316458E0,1.970951385E0,-7.252119141E0,-1.535656586E0,7.670470816E0
5.645289458E0,2.114802246E0,-5.764213257E0,-4.776567078E-1,6.158465632E0
5.655263458E0,2.501897278E0,-5.143753510E0,-5.207670593E-1,5.743595432E0
5.665236458E0,2.434537354E0,-5.376519470E0,-9.348060608E-1,5.975600063E0
5.675210458E0,2.216740265E0,-5.714965668E0,-1.555265808E0,6.324051053E0
5.685183458E0,1.829495544E0,-6.004912720E0,-1.750459900E0,6.516911890E0
5.695157458E0,1.829944611E0,-6.731501770E0,-9.316625977E-1,7.037741723E0
5.705130458E0,1.708846436E0,-8.140671387E0,3.338058472E-2,8.318160916E0
5.715104458E0,5.866300964E-1,-9.512568512E0,2.354603577E-1,9.533547931E0
5.725077458E0,-5.554948425E-1,-1.044063858E1,-7.050338745E-2,1.045564341E1
5.735051458E0,-1.213526459E0,-1.130688721E1,-8.024812317E-1,1.140010179E1
5.745024458E0,-1.451082458E0,-1.178394516E1,-2.481389923E0,1.212948061E1
5.754998458E0,-1.433419189E0,-1.096709381E1,-4.666994934E0,1.200469404E1
5.764971458E0,-3.312611389E-1,-9.700577545E0,-5.753884735E0,1.128353350E1
5.774945458E0,1.052162018E0,-9.114695892E0,-4.760849762E0,1.033684752E1
5.784918458E0,1.228195953E0,-9.219927063E0,-2.784060516E0,9.709094361E0
5.794892458E0,3.400927734E-1,-9.839338989E0,-1.588047638E0,9.972469611E0
5.804865458E0,-1.063388672E0,-1.011910721E1,-6.209088135E-1,1.019375563E1
5.814839458E0,-2.781216431E0,-1.019754410E1,-1.510359192E-1,1.057108709E1
5.824812458E0,-3.805835724E0,-1.056293427E1,-1.880090332E-1,1.122921695E1
5.834786458E0,-4.505780182E0,-1.111798004E1,-4.426295471E-1,1.200447651E1
5.844759458E0,-5.185666351E0,-1.231938171E1,-3.974235535E-1,1.337221922E1
5.854733458E0,-5.343138885E0,-1.443238770E1,4.730163574E-1,1.539697023E1
5.864706458E0,-5.295687561E0,-1.622341324E1,1.052311707E0,1.709826903E1
5.874680458E0,-5.596262512E0,-1.614123413E1,8.159532166E-1,1.710331468E1
5.884653458E0,-5.853427734E0,-1.522588760E1,-8.502319336E-2,1.631249516E1
5.894627458E0,-4.848567352E0,-1.505898468E1,-2.965333557E-1,1.582307040E1
5.904600458E0,-1.808090057E0,-1.479268845E1,1.440005493E-1,1.490347467E1
5.914574458E0,2.545756073E0,-1.319431229E1,-9.925859070E-1,1.347427094E1
5.924547458E0,7.084767151E0,-1.044258453E1,-2.375110931E0,1.284066389E1
5.934520458E0,1.022912842E1,-9.027277679E0,-1.838476868E0,1.376614716E1
5.944494458E0,1.059302170E1,-1.074585388E1,-1.297352142E0,1.514492017E1
5.954467458E0,7.957003326E0,-1.460393097E1,-2.288740540E-1,1.663253093E1
5.964441458E0,9.055718536E0,-1.511122604E1,1.587748260E0,1.768830504E1
5.974414458E0,9.045390015E0,-1.423928925E1,1.328337708E0,1.692161103E1
5.984388458E0,4.216431885E0,-1.486289246E1,-2.204914856E-1,1.545097041E1
5.994361458E0,1.293160858E0,-1.561717392E1,-1.132395172E0,1.571148322E1
6.004335458E0,1.461261292E0,-1.559172684E1,-1.264420624E0,1.571101492E1
6.014308458E0,2.283950500E0,-1.511062729E1,-1.072070618E0,1.531981796E1
6.024282458E0,2.916984100E0,-1.481618958E1,5.626799011E-1,1.511108462E1
6.034255458E0,1.556313629E0,-1.460961914E1,1.258732452E0,1.474610087E1
6.044229458E0,-2.324665833E-1,-1.266785706E1,1.726210327E0,1.278704208E1
6.054202458E0,-3.812871094E0,-1.229468307E1,2.173330536E0,1.305452349E1
6.064176458E0,-4.881349182E0,-1.298220337E1,-3.621419220E0,1.433456840E1
6.074149458E0,-4.483326874E0,-1.357691666E1,-4.492607574E0,1.498720816E1
6.084123458E0,-4.624183960E0,-1.384141663E1,-2.274969177E0,1.476967760E1
6.094096458E0,-3.625161438E0,-1.299073563E1,-7.484436035E-3,1.348707024E1
6.104070458E0,-1.952839050E0,-1.092652817E1,8.090675354E-1,1.112911445E1
6.114043458E0,-7.143145752E-1,-8.557704163E0,8.764274597E-1,8.632072227E0
6.124017458E0,3.709286499E-1,-6.255940704E0,1.383123779E0,6.417742091E0
6.133990458E0,7.238946533E-1,-4.015250244E0,1.804497528E0,4.461218367E0
6.143964458E0,1.842219086E0,-2.202819214E0,1.812580719E0,3.395825748E0
6.153937458E0,2.778671722E0,-1.480271759E0,2.048789520E0,3.756295984E0
6.163911458E0,2.963986359E0,-1.324894867E0,2.388882294E0,4.030796467E0
6.173884458E0,2.320324860E0,-5.535488892E-1,2.844684448E0,3.712486153E0
6.183858458E0,2.384840698E0,2.776725769E-1,2.769989777E0,3.665707378E0
6.193831458E0,2.962788849E0,1.963916016E-1,2.446961517E0,3.847636689E0
6.203805458E0,2.778671722E0,-4.192781067E-1,1.995350647E0,3.446481521E0
6.213778458E0,2.417023773E0,-1.158740387E0,1.142424316E0,2.913728972E0
6.223752458E0,2.165247345E0,-1.949545898E0,1.854643250E-1,2.919490074E0
6.233725458E0,1.870510254E0,-2.394869843E0,-6.744973755E-1,3.112741056E0
6.243699458E0,1.352437592E0,-2.805615692E0,-1.633253632E0,3.516828724E0
6.253672458E0,1.160536652E0,-2.970123596E0,-3.269800415E0,4.567283027E0
6.263646458E0,1.533411255E0,-2.899919586E0,-5.176834717E0,6.128662282E0
6.273619458E0,1.963466949E0,-3.355422363E0,-7.108268280E0,8.101946657E0
6.283593458E0,1.673070831E0,-4.270619202E0,-8.877139893E0,9.992045188E0
6.293566458E0,1.015039215E0,-5.842949524E0,-1.077654007E1,1.230057639E1
6.303540458E0,2.054178314E0,-7.874225464E0,-1.165206940E1,1.421245216E1
6.313513458E0,3.047812042E0,-1.055305481E1,-1.076082275E1,1.537697728E1
6.323487458E0,2.629581757E0,-1.413660278E1,-1.001716919E1,1.752432358E1
6.333460458E0,2.039508820E0,-1.737212448E1,-1.016461258E1,2.023041409E1
6.343434708E0,1.328637085E0,-1.861109802E1,-9.773176575E0,2.106307733E1
6.353407708E0,1.619631958E0,-1.617341721E1,-8.066425781E0,1.814579446E1
6.363381708E0,3.045417023E0,-1.217373459E1,-6.774612122E0,1.426077656E1
6.373354708E0,4.537214813E0,-8.736582184E0,-6.692433014E0,1.190390046E1
6.383328708E0,6.652466125E0,-7.154821472E0,-9.667496338E0,1.374435380E1
6.393301708E0,6.125861206E0,-1.088805817E1,-1.192091034E1,1.726800769E1
6.403275708E0,2.331850891E0,-1.807566147E1,-3.347488861E0,1.853031969E1
6.413248708E0,4.536166992E0,-2.349020187E1,2.770887909E0,2.408410710E1
6.423222708E0,6.201903076E0,-2.356354935E1,2.091899872E0,2.445568451E1
6.433195708E0,1.301393738E0,-1.713711319E1,7.753875732E-1,1.720393850E1
6.443169708E0,7.324269104E-1,-6.905889130E0,3.293750610E0,7.686126914E0
6.453142708E0,6.308631134E0,-4.153862000E-1,7.938741302E0,1.014864454E1
6.463116708E0,9.299711151E0,1.896107025E0,4.981191559E0,1.071877412E1
6.473089708E0,8.610244904E0,3.891906738E-2,7.691006470E-1,8.644613803E0
6.483063708E0,5.270240479E0,-4.545298004E0,2.596350861E0,7.428068823E0
6.493036708E0,2.164947968E0,-8.847351837E0,4.702770538E0,1.025078948E1
6.503010708E0,1.790426788E0,-1.023287064E1,5.866001587E0,1.193009825E1
6.512983708E0,1.327140198E0,-1.243030106E1,5.245392151E0,1.355683681E1
6.522957708E0,8.427474976E-1,-1.580203949E1,4.178710327E0,1.636692688E1
6.532930708E0,-3.854484558E-1,-1.962628693E1,2.831212463E0,1.983319120E1
6.542904708E0,-2.776276703E0,-2.349514160E1,1.615590363E0,2.371369907E1
6.552877708E0,-4.216731262E0,-2.068623276E1,4.797523499E-1,2.111708338E1
6.562851708E0,-3.067570953E0,-1.347842148E1,-3.720064087E0,1.431491229E1
6.572824708E0,-1.586550751E0,-9.216933289E0,-8.827443237E0,1.286051152E1
6.582797708E0,-1.289718018E0,-8.352929993E0,-4.937033386E0,9.788212844E0
6.592771708E0,-1.021775208E0,-7.801626434E0,-3.435056763E0,8.585395422E0
6.602744708E0,-3.074606323E-1,-6.633605347E0,-1.279090118E0,6.762789622E0
6.612718708E0,1.681004333E-1,-6.449039154E0,-1.080153809E0,6.541031724E0
6.622691708E0,3.501219177E-1,-7.224576416E0,-4.230652313E0,8.379469479E0
6.632665708E0,3.577560425E-2,-8.314010925E0,-4.127367096E0,9.282198915E0
6.642638708E0,-9.175918579E-2,-8.778944092E0,-1.872755585E0,8.976942274E0
6.652612708E0,7.929011536E-1,-8.838520203E0,-1.146465912E0,8.947765961E0
6.662585708E0,1.608255615E0,-8.610843658E0,-1.953138428E0,8.974846202E0
6.672559708E0,1.660946045E0,-8.186476135E0,-2.450104980E0,8.705179360E0
6.682532708E0,1.591939545E0,-7.755073242E0,-2.883004761E0,8.425387170E0
6.692506708E0,1.775757294E0,-7.289541321E0,-3.190166016E0,8.152783932E0
6.702479708E0,2.258204041E0,-6.769522705E0,-3.110381927E0,7.784625802E0
6.712453708E0,2.819686432E0,-6.699019318E0,-3.106789398E0,7.904405845E0
6.722426708E0,3.138822784E0,-6.797664185E0,-2.839744720E0,8.007783521E0
6.732400708E0,3.071163483E0,-7.021598511E0,-2.097438354E0,7.945699367E0
6.742373708E0,2.219734039E0,-7.731123047E0,-1.196761322E0,8.132018226E0
6.752347708E0,7.464976501E-1,-8.695417786E0,-3.207829285E-1,8.733295535E0
6.762320708E0,-3.746708679E-1,-9.492210846E0,4.722679138E-1,9.511334396E0
6.772294708E0,-8.887019348E-1,-1.006941055E1,9.086105347E-1,1.014930506E1
6.782267708E0,-7.864645386E-1,-1.032313293E1,8.439450073E-1,1.038738866E1
6.792241708E0,-1.862127686E-1,-9.951306152E0,-4.412823486E-1,9.962825876E0
6.802214708E0,4.013154602E-1,-9.098529510E0,-3.139720917E0,9.633386777E0
6.812188708E0,1.206940155E0,-8.490044861E0,-5.959107971E0,1.044263061E1
6.822161708E0,1.917063446E0,-8.486452332E0,-6.273603973E0,1.072628138E1
6.832135708E0,9.351054382E-1,-9.347162476E0,-3.671265564E0,1.008573544E1
6.842108708E0,-1.061442719E0,-1.062655197E1,-5.685177612E-1,1.069455375E1
6.852082708E0,-2.827470245E0,-1.175595337E1,9.210346985E-1,1.212622499E1
6.862055708E0,-3.898792419E0,-1.224468704E1,1.001716919E0,1.288939021E1
6.872029708E0,-4.046984253E0,-1.192285629E1,-2.501298523E-1,1.259345658E1
6.882002708E0,-3.451073456E0,-1.161614410E1,-2.626438293E0,1.239931006E1
6.891976708E0,-2.207459564E0,-1.110825027E1,-4.633913727E0,1.223679935E1
6.901949708E0,-6.685098267E-1,-9.895172882E0,-5.408103790E0,1.129641263E1
6.911923708E0,1.106798401E0,-8.316106567E0,-4.685406647E0,9.609144946E0
6.921896708E0,2.741698608E0,-7.710166626E0,-4.640949097E0,9.407549584E0
6.931870708E0,3.356021118E0,-8.505013733E0,-5.819149017E0,1.083792561E1
6.941843708E0,2.668650513E0,-9.761949921E0,-5.287903748E0,1.141837501E1
6.951817708E0,2.389630737E0,-1.236773117E1,-2.916684723E0,1.292973933E1
6.961790708E0,-3.112028503E-1,-1.667831726E1,-1.145268402E0,1.672048904E1
6.971764708E0,-3.299887848E0,-1.955802887E1,-6.152206421E-2,1.983455414E1
6.981737708E0,-4.622986450E0,-1.984408401E1,1.223705292E0,2.041218089E1
6.991711708E0,-4.211941223E0,-1.888742340E1,3.047662354E0,1.958988151E1
7.001684708E0,-1.375789032E0,-1.829645233E1,3.355721741E0,1.865244841E1
7.011658708E0,8.399034119E-1,-1.884131927E1,2.292482758E0,1.899884804E1
7.021631708E0,2.315385132E0,-1.880210083E1,4.299060059E-1,1.894900586E1
7.031605708E0,3.630101166E0,-1.797447189E1,-1.628164215E0,1.840951366E1
7.041578708E0,4.855602722E0,-1.674807220E1,-2.756068726E0,1.765419823E1
7.051552708E0,5.564079437E0,-1.661844177E1,-3.570075989E0,1.788510636E1
7.061525708E0,5.583389282E0,-1.653940613E1,-4.261488190E0,1.796904206E1
7.071499708E0,5.649701385E0,-1.553334824E1,-4.048930206E0,1.701757530E1
7.081472708E0,6.064339142E0,-1.404304733E1,-9.503736877E-1,1.532601050E1
7.091446708E0,5.484744415E0,-1.263522491E1,5.539380798E0,1.484641605E1
7.101419708E0,3.856131134E0,-1.005773483E1,5.002746735E0,1.187666840E1
7.111393708E0,2.127825165E0,-8.592431946E0,1.769320679E0,9.027071637E0
7.121366708E0,-1.420545959E0,-9.034911804E0,-2.148931274E0,9.394971408E0
7.131340708E0,-2.427501984E0,-9.845476227E0,-4.230352936E0,1.098735883E1
7.141313708E0,-2.110012207E0,-1.017688705E1,-2.001487885E0,1.058428719E1
7.151286708E0,-1.897454224E0,-9.944719849E0,3.585044861E-1,1.013046449E1
7.161260708E0,-3.424877930E-1,-8.119565277E0,2.226919098E0,8.426375665E0
7.171233708E0,6.626719666E-1,-5.807622986E0,3.340004425E0,6.732254336E0
7.181207708E0,8.387059021E-1,-4.112248535E0,3.157982941E0,5.252320617E0
7.191180708E0,1.296004944E0,-1.758094025E0,2.172282715E0,3.080476523E0
7.201154708E0,1.612297211E0,-5.034031677E-1,1.983824615E0,2.605470620E0
7.211127708E0,2.289189606E0,-5.328918457E-1,1.907034302E0,3.026737947E0
7.221101708E0,2.975362701E0,-2.058219910E-1,1.746567993E0,3.456247337E0
7.231074708E0,3.046614532E0,9.924362183E-2,1.427132263E0,3.365771220E0
7.241048708E0,2.455344086E0,2.836601257E-1,1.279838562E0,2.783372844E0
7.251021708E0,2.058668976E0,3.326083374E-1,9.672885132E-1,2.298780835E0
7.260995708E0,1.484762421E0,-1.432521057E-1,5.230123901E-1,1.580690536E0
7.270968708E0,7.409591675E-1,-8.782237244E-1,-8.786727905E-2,1.152396658E0
7.280942708E0,3.170407104E-1,-1.214424591E0,-8.831634521E-1,1.534705047E0
7.290915708E0,1.978884888E-1,-1.875000916E0,-1.775457916E0,2.589795185E0
7.300889708E0,5.399272156E-1,-2.689008179E0,-3.404819641E0,4.372079959E0
7.310862708E0,1.543440399E0,-3.181633759E0,-5.326822815E0,6.393750303E0
7.320836708E0,2.338287506E0,-3.947291565E0,-7.640411682E0,8.912047455E0
7.330809708E0,1.795665894E0,-5.776936798E0,-1.151166138E1,1.300445164E1
7.340784375E0,1.898202667E0,-9.302255859E0,-1.502186188E1,1.777052255E1
7.350757375E0,3.032094727E0,-1.424078613E1,-1.566013458E1,2.138301670E1
7.360731375E0,4.302353210E0,-1.974948074E1,-1.238554413E1,2.370556762E1
7.370704375E0,4.833598480E0,-2.183030365E1,-9.660460968E0,2.435673085E1
7.380678375E0,4.314927063E0,-1.802027664E1,-8.217761078E0,2.027018902E1
7.390651375E0,4.209695892E0,-1.269794449E1,-7.930807800E0,1.555175380E1
7.400625375E0,3.742367706E0,-8.072862396E0,-7.053182831E0,1.135446218E1
7.410598375E0,2.909200287E0,-3.091221771E0,-6.700815582E0,7.932214559E0
7.420572375E0,1.596879272E0,1.025218048E0,-7.498806152E0,7.735191605E0
7.430545375E0,-1.716330872E0,3.053949280E0,-6.468049622E0,7.355818362E0
7.440519375E0,-4.579127655E0,1.647923126E0,-7.229965210E-2,4.867164262E0
7.450492375E0,-6.262976074E-1,-2.251917114E0,6.943011932E0,7.325898858E0
7.460466375E0,6.365213470E0,-6.817572784E0,9.042695618E0,1.299098092E1
7.470439375E0,1.022897873E1,-1.241263779E1,7.589367828E0,1.778493988E1
7.480413375E0,1.305510178E1,-2.141671371E1,-5.377866669E0,2.565214920E1
7.490386375E0,1.172257278E1,-4.046071152E1,-3.769461365E1,5.652761968E1
7.500360375E0,8.901239777E0,-4.249782532E1,-1.505269775E0,4.344609376E1
7.510333375E0,5.231471100E0,-1.958317657E1,1.933574112E1,2.801321080E1
7.520307375E0,3.247945862E0,-2.905607758E0,7.757917328E0,8.898145314E0
7.530280375E0,4.974006500E0,3.005899200E0,-2.651735687E0,6.388104008E0
7.540254375E0,3.802841949E0,1.689985657E0,-1.020877075E0,4.284839369E0
7.550227375E0,1.478924561E0,-5.523064728E0,5.886059875E0,8.205922416E0
7.560201375E0,3.067121887E-1,-1.118369339E1,9.325008545E0,1.456450667E1
7.570174375E0,-6.357279968E-1,-1.398317184E1,7.093149719E0,1.569222794E1
7.580147375E0,-2.536325684E0,-1.774290344E1,4.137096863E0,1.839454106E1
7.590121375E0,-4.498146057E0,-2.137779465E1,2.474055176E0,2.198554914E1
7.600094375E0,-3.913611603E0,-1.865720215E1,1.949096832E0,1.916263359E1
7.610068375E0,-3.111280060E0,-1.323876984E1,1.463656311E0,1.367798889E1
7.620041375E0,-2.166295166E0,-1.053329590E1,8.949888611E-1,1.079092963E1
7.630015375E0,-6.219566345E-1,-8.904083862E0,-1.978136444E0,9.142349986E0
7.639988375E0,5.813909912E-1,-7.580087128E0,-5.810467072E0,9.568556001E0
7.649962375E0,9.214837646E-1,-7.629634094E0,-5.958808594E0,9.724600177E0
7.659935375E0,1.252894592E0,-7.935597839E0,-3.906127167E0,8.933156630E0
7.669909375E0,1.564097443E0,-7.681576080E0,-5.345384216E-1,7.857400538E0
7.679882375E0,1.473685455E0,-8.417745209E0,-2.438728638E0,8.886933137E0
7.689856375E0,7.289840698E-1,-9.945917358E0,-3.709436188E0,1.064014129E1
7.699829375E0,2.200424194E-2,-1.095257401E1,-3.067870331E0,1.137414568E1
7.709803375E0,-5.568420410E-1,-1.041818527E1,-1.745220795E0,1.057801744E1
7.719776375E0,-1.613644409E-1,-8.410859528E0,-3.796105957E-1,8.420967918E0
7.729750375E0,1.112636261E0,-6.697672119E0,-8.696914673E-2,6.790017297E0
7.739723375E0,2.213746490E0,-5.487139435E0,-2.260299683E-1,5.921187571E0
7.749697375E0,3.112926636E0,-5.145400085E0,-5.162763977E-1,6.035892279E0
7.759670375E0,3.536545715E0,-5.496569824E0,-1.003363495E0,6.612576936E0
7.769644375E0,3.833677826E0,-6.012397156E0,-1.814826050E0,7.357961594E0
7.779617375E0,3.712579651E0,-7.032825165E0,-2.484832764E0,8.331762798E0
7.789591375E0,2.821931763E0,-8.075856171E0,-2.281106415E0,8.853598039E0
7.799564375E0,1.645378418E0,-9.011410675E0,-1.553469543E0,9.291181847E0
7.809538375E0,2.764750671E-1,-9.928852844E0,-8.625064087E-1,9.970078965E0
7.819511375E0,-8.890013123E-1,-1.069226532E1,-8.554710388E-1,1.076321010E1
7.829485375E0,-9.318122864E-1,-1.057895096E1,-2.249671783E0,1.085557463E1
7.839458375E0,-1.600172424E-1,-9.571545868E0,-4.484674072E0,1.057130065E1
7.849432375E0,8.767268372E-1,-8.433163147E0,-4.754413147E0,9.720665357E0
7.859405375E0,1.488953705E0,-8.243058472E0,-3.347488861E0,9.020569704E0
7.869379375E0,6.342311096E-1,-9.136849823E0,-1.649120636E0,9.306120172E0
7.879352375E0,-1.075663147E0,-1.054991135E1,-3.989204407E-1,1.061210715E1
7.889326375E0,-3.444187775E0,-1.163485519E1,4.775070190E-2,1.213402509E1
7.899299375E0,-4.977449341E0,-1.236279144E1,-1.432521057E-1,1.332794565E1
7.909273375E0,-5.418582001E0,-1.252909561E1,-8.698411560E-1,1.367830002E1
7.919246375E0,-5.078638916E0,-1.245799347E1,-1.942959595E0,1.359298593E1
7.929220375E0,-3.933071136E0,-1.250125351E1,-2.177222443E0,1.328497969E1
7.939193375E0,-2.396366730E0,-1.223570572E1,-2.727927246E0,1.276309739E1
7.949167375E0,-8.467890930E-1,-1.126018433E1,-4.074526978E0,1.200460632E1
7.959140375E0,9.759704590E-1,-1.039932449E1,-4.774022369E0,1.148432662E1
7.969114375E0,1.879491577E0,-1.077713882E1,-4.477938080E0,1.182079267E1
7.979087375E0,1.711241455E0,-1.184097656E1,-3.113375702E0,1.236245047E1
7.989061375E0,4.457730103E-1,-1.263851807E1,-1.971250763E0,1.279908911E1
7.999034375E0,-5.721102905E-1,-1.192225754E1,-8.018824768E-1,1.196288220E1
8.009008375E0,-3.028202820E-1,-1.039663010E1,-7.249424744E-1,1.042627254E1
8.018981375E0,-8.964857483E-1,-1.098236206E1,3.143463135E-1,1.102337411E1
8.028955375E0,-1.549877014E0,-1.446322357E1,1.056203613E0,1.458432449E1
8.038928375E0,-1.952689362E0,-1.734862335E1,2.149230652E0,1.758996647E1
8.048902375E0,-9.270222473E-1,-1.780262924E1,2.942431183E0,1.806795172E1
8.058875375E0,1.044976959E0,-1.736898102E1,3.273692322E0,1.770566406E1
8.068848375E0,2.954555969E0,-1.767853729E1,2.293530579E0,1.806987450E1
8.078822375E0,3.448528748E0,-1.803853867E1,-4.939727783E-2,1.836528431E1
8.088796375E0,3.731290741E0,-1.794079193E1,-2.098186798E0,1.844442825E1
8.098769375E0,5.047503662E0,-1.756671982E1,-2.486030273E0,1.844579315E1
8.108743375E0,5.782325592E0,-1.710073883E1,-2.193538513E0,1.818466852E1
8.118716375E0,5.470673676E0,-1.641097321E1,-1.758992157E0,1.738799487E1
8.128689375E0,5.388943634E0,-1.477173203E1,-1.025517426E0,1.575742576E1
8.138663375E0,4.753664703E0,-1.287831940E1,2.885848846E0,1.402770695E1
8.148636375E0,2.846031647E0,-1.128428421E1,6.439159698E0,1.330029112E1
8.158610375E0,1.867815857E0,-9.841284943E0,1.871109009E-1,1.001871428E1
8.168583375E0,1.225950623E-1,-9.376501465E0,-2.558629303E0,9.720102529E0
8.178557375E0,-2.724185028E0,-1.005429199E1,-3.281326447E0,1.092140443E1
8.188530375E0,-3.096161499E0,-1.103340591E1,-1.815275116E0,1.160247757E1
8.198504375E0,-2.542313232E0,-1.056532928E1,-4.969665527E-2,1.086701473E1
8.208477375E0,-1.053808594E0,-8.760981445E0,9.220825195E-1,8.872178121E0
8.218451375E0,1.269360352E-1,-6.194568329E0,2.048939209E0,6.525867101E0
8.228424375E0,3.872447205E-1,-4.199966125E0,2.277364197E0,4.793335124E0
8.238398375E0,8.184979248E-1,-2.885250092E0,1.848955078E0,3.523243083E0
8.248371375E0,1.228944397E0,-1.616189117E0,1.831591187E0,2.734428253E0
8.258345375E0,1.629511414E0,-6.367758179E-1,1.722767487E0,2.455344925E0
8.268318375E0,2.044747925E0,-5.846841431E-1,1.493294678E0,2.598610902E0
8.278292375E0,1.723216553E0,-1.056353302E0,1.555864563E0,2.550700320E0
8.288265375E0,1.412462769E0,-1.480122070E0,1.365909576E0,2.459984022E0
8.298239375E0,1.375938721E0,-1.606309662E0,1.415007477E0,2.544736578E0
8.308212375E0,1.354233856E0,-1.782193909E0,1.523980865E0,2.707892565E0
8.318186375E0,1.482517090E0,-1.938618622E0,9.695338440E-1,2.626041690E0
8.328159375E0,1.511257324E0,-1.981728973E0,2.758763123E-1,2.507440162E0
8.338132708E0,1.398541718E0,-2.064357147E0,-4.408332825E-1,2.532157845E0
8.348105708E0,1.430724792E0,-1.824855194E0,-1.568139038E0,2.799308835E0
8.358079708E0,1.312321014E0,-1.692680054E0,-2.987188110E0,3.675682932E0
8.368052708E0,1.606609039E0,-2.259401550E0,-5.120701447E0,5.823029390E0
8.378026708E0,2.045047302E0,-3.324287109E0,-7.610623627E0,8.553051809E0
8.387999708E0,1.267264709E0,-5.060676270E0,-1.105630829E1,1.222531624E1
8.397973708E0,5.818400574E-1,-8.255332947E0,-1.409139679E1,1.634186413E1
8.407946708E0,7.652087402E-1,-1.227597198E1,-1.537827072E1,1.969203501E1
8.417920708E0,1.651964722E0,-1.685719528E1,-1.324610458E1,2.150240235E1
8.427893708E0,1.619631958E0,-2.019764877E1,-1.175011551E1,2.342292548E1
8.437867708E0,6.900650024E-1,-1.999227585E1,-1.034798126E1,2.252216685E1
8.447840708E0,2.182461548E0,-1.552586380E1,-8.358767853E0,1.776751488E1
8.457814708E0,3.594026184E0,-1.034364029E1,-6.586902466E0,1.277870114E1
8.467787708E0,3.339405670E0,-5.973777466E0,-5.746100922E0,8.936180574E0
8.477761708E0,3.204835510E0,-3.008593597E0,-6.979386292E0,8.248299163E0
8.487734708E0,1.657952271E0,-3.224594421E0,-7.502698059E0,8.332904240E0
8.497708708E0,-3.303630066E-1,-7.459587708E0,-7.768844604E-1,7.507205735E0
8.507681708E0,1.874701538E0,-1.052132080E1,4.710554352E0,1.167912752E1
8.517655708E0,6.603218536E0,-1.182241516E1,5.474266205E0,1.460614890E1
8.527628708E0,8.751551056E0,-1.210323120E1,4.868326263E0,1.570918368E1
8.537602708E0,1.002210892E1,-1.345716568E1,-3.845952301E0,1.721421867E1
8.547575708E0,9.549541626E0,-1.908950317E1,-1.483789444E1,2.599549938E1
8.557549708E0,6.054160309E0,-1.893607224E1,4.236190796E-1,1.988484704E1
8.567522708E0,5.716911621E0,-1.266785706E1,7.463629303E0,1.577540628E1
8.577496708E0,4.232747955E0,-7.876620483E0,3.525618439E0,9.611830776E0
8.587469708E0,2.214195557E0,-7.237749023E0,5.554948425E-1,7.589219157E0
8.597443708E0,1.037791901E0,-9.023385773E0,3.474275208E-1,9.089510917E0
8.607416708E0,-6.472540283E-1,-1.076067307E1,2.860401764E0,1.115315744E1
8.617390708E0,-5.288502502E-1,-1.181073944E1,3.917952576E0,1.245486255E1
8.627363708E0,-9.238787842E-1,-1.334115692E1,2.422562256E0,1.359076259E1
8.637337708E0,-2.809058533E0,-1.553978485E1,6.902146912E-1,1.580671121E1
8.647310708E0,-4.431384888E0,-1.589784027E1,2.586621094E-1,1.650592025E1
8.657284708E0,-3.586541748E0,-1.305794586E1,5.254074097E-1,1.355172627E1
8.667257708E0,-2.130369873E0,-1.025951523E1,7.191046143E-1,1.050301100E1
8.677231708E0,-1.261875916E0,-8.898844757E0,1.100810852E0,9.055029175E0
8.687204708E0,-3.134481812E-1,-8.370593262E0,7.997868347E-1,8.414555264E0
8.697178708E0,8.208929443E-1,-7.888296204E0,-7.384144592E-1,7.965195424E0
8.707151708E0,2.461331635E0,-7.490124207E0,-2.740351410E0,8.346834124E0
8.717125708E0,3.851939850E0,-7.633226624E0,-2.893033905E0,9.026252515E0
8.727098708E0,4.357887726E0,-8.422984314E0,-1.746717682E0,9.643073828E0
8.737072708E0,4.007167053E0,-9.216783600E0,-1.142873383E0,1.011497144E1
8.747045708E0,2.910697174E0,-9.266779633E0,-1.896556091E0,9.896579601E0
8.757019708E0,2.049238586E0,-9.020990753E0,-2.550695801E0,9.596025324E0
8.766992708E0,1.251547394E0,-8.762029266E0,-2.809657288E0,9.286210304E0
8.776966708E0,4.044589233E-1,-8.489146729E0,-2.548001404E0,8.872514320E0
8.786939708E0,1.535806274E-1,-8.186476135E0,-2.274969177E0,8.498085860E0
8.796913708E0,4.113446045E-1,-7.811805267E0,-1.962419128E0,8.065022923E0
8.806886708E0,9.901908875E-1,-7.512876892E0,-1.348246307E0,7.696854247E0
8.816860708E0,1.140927429E0,-7.497608643E0,-7.783813477E-1,7.623760770E0
8.826833708E0,1.119971008E0,-7.475903778E0,-1.417552185E-1,7.560659158E0
8.836807708E0,1.241069183E0,-7.523205414E0,3.207829285E-1,7.631629846E0
8.846780708E0,1.221160583E0,-7.700736237E0,4.999603271E-1,7.812972039E0
8.856754708E0,1.244062958E0,-7.992778931E0,2.739303589E-1,8.093654645E0
8.866727708E0,1.128353577E0,-8.627159729E0,-4.785548401E-1,8.713786864E0
8.876701708E0,5.981561279E-1,-9.416767731E0,-1.297352142E0,9.524517197E0
8.886674708E0,-1.181044006E-1,-1.026295807E1,-2.044598236E0,1.046530644E1
8.896648708E0,-7.872129822E-1,-1.084898941E1,-2.857258301E0,1.124651948E1
8.906621708E0,-1.229393463E0,-1.080692688E1,-3.515738983E0,1.143072603E1
8.916595708E0,-1.171912994E0,-1.031699570E1,-3.842060394E0,1.107136886E1
8.926568708E0,-4.592449951E-1,-9.667047272E0,-3.575614471E0,1.031735081E1
8.936542708E0,4.580474854E-1,-9.690698090E0,-2.314037933E0,9.973675778E0
8.946515708E0,1.184037781E0,-1.012719040E1,-9.544152832E-1,1.024074408E1
8.956489708E0,9.765692139E-1,-1.027897476E1,-4.875361633E-1,1.033676454E1
8.966462708E0,-9.310638428E-2,-1.062430664E1,-3.291654968E-1,1.062981234E1
8.976436708E0,-1.604513397E0,-1.104553070E1,-8.443940735E-1,1.119335575E1
8.986409708E0,-2.707120514E0,-1.142663818E1,-1.623074799E0,1.185457437E1
8.996383708E0,-3.447630615E0,-1.162123352E1,-1.935475159E0,1.227539366E1
9.006356708E0,-3.713028717E0,-1.171014862E1,-2.144440613E0,1.247047668E1
9.016330708E0,-3.153342590E0,-1.173963730E1,-2.442021790E0,1.239863395E1
9.026303708E0,-2.344724121E0,-1.135089569E1,-2.597548370E0,1.187803947E1
9.036277708E0,-1.421444092E0,-1.098670303E1,-2.493664398E0,1.135546164E1
9.046250708E0,-9.005273438E-1,-1.093521011E1,-2.051483917E0,1.116236337E1
9.056224708E0,-2.327659607E-1,-1.126452530E1,-1.496887207E0,1.136593074E1
9.066197708E0,9.166937256E-1,-1.190848618E1,-3.613036652E0,1.247823722E1
9.076171708E0,2.540217590E-1,-1.142678787E1,-3.625760193E0,1.199091928E1
9.086144708E0,-8.954379272E-1,-1.149444717E1,-7.358697510E-1,1.155273254E1
9.096118708E0,-1.211430817E0,-1.334325256E1,1.854643250E-1,1.339941605E1
9.106091708E0,-5.695655823E-1,-1.558184738E1,9.952803040E-1,1.562398655E1
9.116065708E0,7.212002563E-1,-1.673415115E1,1.528321838E0,1.681926610E1
9.126038708E0,2.546654205E0,-1.636771317E1,1.924398193E0,1.667605440E1
9.136012708E0,3.340303802E0,-1.620425308E1,1.140628052E0,1.658422382E1
9.145985708E0,3.319497070E0,-1.650797150E1,-3.474275208E-1,1.684199779E1
9.155959708E0,3.955973511E0,-1.669508240E1,-1.438957672E0,1.721761022E1
9.165932708E0,4.733905792E0,-1.714399887E1,-2.381397858E0,1.794429205E1
9.175906708E0,5.599555664E0,-1.723411148E1,-3.184028778E0,1.839857770E1
9.185879708E0,6.931336212E0,-1.627999557E1,-4.030967560E0,1.814746200E1
9.195853708E0,6.488556976E0,-1.544997162E1,-2.258653107E0,1.690871102E1
9.205826708E0,5.101391602E0,-1.461246323E1,1.129401398E0,1.551849945E1
9.215800708E0,2.873274994E0,-1.257804382E1,6.263574829E0,1.434208023E1
9.225773708E0,-1.679657135E0,-1.204096069E1,6.041586456E0,1.357596219E1
9.235747708E0,-3.369642792E0,-1.232237549E1,-2.410886536E0,1.300030015E1
9.245720708E0,-3.713028717E0,-1.278775772E1,-4.199517059E0,1.396242362E1
9.255694708E0,-4.582869873E0,-1.344563965E1,-2.407443695E0,1.440776551E1
9.265667708E0,-3.784130859E0,-1.248403931E1,-1.146316223E0,1.309522526E1
9.275641708E0,-2.573448486E0,-1.030861313E1,-5.852828979E-2,1.062513846E1
9.285614708E0,-5.822891235E-1,-7.663912811E0,1.779200134E0,7.889244154E0
9.295588708E0,-4.894821167E-2,-4.956642609E0,2.332000580E0,5.478040579E0
9.305561708E0,-2.499801636E-2,-2.922073517E0,2.228266296E0,3.674820979E0
9.315535708E0,3.854484558E-1,-1.707499237E0,2.439327393E0,3.002406083E0
9.325508708E0,1.056353302E0,-1.220561829E0,2.248623962E0,2.768025144E0
9.335482708E0,1.892514496E0,-1.637295227E0,1.873953094E0,3.126347226E0
9.345456083E0,2.603685608E0,-9.337582397E-1,2.366728363E0,3.640396454E0
9.355430083E0,3.065475311E0,-1.760339355E-1,2.466121674E0,3.938258872E0
9.365403083E0,3.296445007E0,-2.505789185E-1,2.099683685E0,3.916377288E0
9.375376083E0,3.432661743E0,-3.713777161E-1,1.413660278E0,3.730887754E0
9.385350083E0,3.565285950E0,-4.905299377E-1,3.984713745E-1,3.620864946E0
9.395323083E0,3.348386993E0,-8.611592102E-1,-2.112107849E-1,3.463798585E0
9.405297083E0,2.943329315E0,-1.299447784E0,-9.849517822E-1,3.364800442E0
9.415270083E0,2.129322052E0,-1.612895966E0,-2.014959869E0,3.345969078E0
9.425244083E0,1.423240356E0,-2.447859650E0,-3.014581146E0,4.135858975E0
9.435217083E0,1.455273743E0,-3.388952637E0,-4.594246216E0,5.891512533E0
9.445191083E0,2.275268555E0,-4.277953949E0,-6.673572235E0,8.247078474E0
9.455165083E0,2.602338409E0,-5.460943909E0,-8.726553040E0,1.061822968E1
9.465138083E0,1.065484314E0,-6.738537140E0,-1.153306686E1,1.339980488E1
9.475111083E0,4.153862000E-1,-9.086704102E0,-1.370624771E1,1.644998369E1
9.485085083E0,6.165678406E-1,-1.254735764E1,-1.343905334E1,1.839631741E1
9.495059083E0,8.249345398E-1,-1.620934250E1,-1.089344696E1,1.954713503E1
9.505032083E0,7.490423584E-1,-1.810006073E1,-8.751101990E0,2.011852502E1
9.515006083E0,1.221909027E0,-1.752211258E1,-7.444319458E0,1.907709053E1
9.524979083E0,2.101629639E0,-1.459255463E1,-7.321125641E0,1.646081342E1
9.534952083E0,2.062261505E0,-1.054332504E1,-7.952961731E0,1.336653380E1
9.544926083E0,1.627266083E0,-6.493796082E0,-8.187823334E0,1.057628637E1
9.554899083E0,2.118843842E0,-2.543061676E0,-8.559799805E0,9.177517889E0
9.564873083E0,2.215842133E0,-1.697021027E0,-9.039701843E0,9.460763507E0
9.574846083E0,6.571334839E-1,-7.116201782E0,-5.298082581E0,8.896169471E0
9.584820083E0,1.118174744E0,-1.243509109E1,2.689756622E0,1.277171077E1
9.594793083E0,4.476141815E0,-1.520223679E1,5.539680176E0,1.678784993E1
9.604767083E0,5.366490326E0,-1.775442947E1,2.134112091E0,1.867012102E1
9.614741083E0,4.976401520E0,-2.013762360E1,-4.015100555E0,2.112840478E1
9.624714083E0,5.939199371E0,-2.188778412E1,-8.105644226E0,2.408424072E1
9.634687083E0,8.313861237E0,-1.725087662E1,1.995500336E0,1.925344266E1
9.644661083E0,8.454868011E0,-7.907456360E0,6.446644135E0,1.325035395E1
9.654634083E0,7.645800476E0,-1.665736084E0,1.517244873E0,7.970882864E0
9.664608083E0,5.842949524E0,-1.057999878E0,6.253994751E-1,5.970807934E0
9.674581083E0,3.764970703E0,-5.243146820E0,3.210523682E0,7.209234029E0
9.684555083E0,1.829046478E0,-9.520801392E0,5.866450653E0,1.133165096E1
9.694528083E0,1.249900818E0,-1.187375839E1,6.421047363E0,1.355648331E1
9.704502083E0,1.052461395E0,-1.369157822E1,4.568499756E0,1.447197910E1
9.714475083E0,3.158432007E-1,-1.611863113E1,2.950364685E0,1.638946852E1
9.724449083E0,-3.806584167E-1,-1.771146881E1,1.184786224E0,1.775513297E1
9.734422083E0,-8.253836060E-1,-1.653012543E1,-2.068698120E-1,1.655201196E1
9.744396083E0,-1.335223389E0,-1.338845856E1,8.472381592E-2,1.345514111E1
9.754369083E0,-1.509161682E0,-1.036729111E1,1.043629761E0,1.052841189E1
9.764343083E0,-8.839118958E-1,-8.624764709E0,-5.987548828E-4,8.669940420E0
9.774316083E0,-4.890330505E-1,-7.708819427E0,-4.060755615E0,8.726670984E0
9.784290083E0,-5.932164001E-1,-7.941884766E0,-5.907016296E0,9.915557516E0
9.794263083E0,-8.035290527E-1,-8.885821838E0,-3.246299286E0,9.494311336E0
9.804237083E0,-1.059945831E0,-9.152567139E0,-6.253994751E-1,9.234938814E0
9.814210083E0,-1.445094910E0,-9.105415192E0,-1.580563202E0,9.353879684E0
9.824184083E0,-7.791297913E-1,-9.364825745E0,-2.315385132E0,9.678223637E0
9.834157083E0,-6.134243774E-1,-9.941726074E0,-1.771715698E0,1.011697501E1
9.844131083E0,-4.682263184E-1,-9.833052063E0,-1.018482056E0,9.896739587E0
9.854104083E0,-8.262817383E-2,-8.715775452E0,-7.429051208E-1,8.747769839E0
9.864078083E0,5.252577209E-1,-7.889643402E0,-1.263672180E0,8.007448786E0
9.874051083E0,1.006057892E0,-7.039411469E0,-1.616039429E0,7.292259577E0
9.884025083E0,1.379531250E0,-6.069727936E0,-1.482666779E0,6.398672086E0
9.893998083E0,1.776206360E0,-5.556595001E0,-1.745969238E0,6.089258216E0
9.903972083E0,2.236050110E0,-5.904471588E0,-1.983674927E0,6.617980889E0
9.913945083E0,2.143093414E0,-6.691534882E0,-2.047142944E0,7.318489099E0
9.923919083E0,1.864822083E0,-7.388036499E0,-1.316811676E0,7.732699251E0
9.933892083E0,1.208287354E0,-8.248746643E0,-3.363505554E-1,8.343555070E0
9.943866083E0,2.532733154E-1,-9.193132782E0,2.695893860E-1,9.200571512E0
9.953839083E0,-4.272116089E-1,-1.026415558E1,4.574487305E-1,1.028322220E1
9.963813083E0,-6.418652344E-1,-1.109822113E1,-1.631607056E-2,1.111677874E1
9.973786083E0,-3.544628906E-1,-1.111259125E1,-1.321002960E0,1.119644484E1
9.983760083E0,3.445834351E-1,-1.046563660E1,-3.096011810E0,1.091941282E1
9.993733083E0,1.115031281E0,-9.823172607E0,-4.153862000E0,1.072345953E1
1.000370708E1,1.688638458E0,-9.169781342E0,-3.572620697E0,9.984989151E0
1.001368008E1,1.667232971E0,-9.571096802E0,-1.884131927E0,9.896237310E0
1.002365408E1,1.802252197E-1,-1.047207321E1,-8.333171082E-1,1.050672241E1
1.003362708E1,-1.761237488E0,-1.126422592E1,-2.782713318E-1,1.140448061E1
1.004360108E1,-2.962788849E0,-1.160431870E1,-7.723937988E-2,1.197682329E1
1.005357408E1,-3.485052795E0,-1.162931671E1,-8.866062927E-1,1.217261972E1
1.006354808E1,-3.074756012E0,-1.137739059E1,-1.788181458E0,1.192043347E1
1.007352108E1,-2.096989288E0,-1.086051544E1,-2.987188110E0,1.145737546E1
1.008349508E1,-6.888674927E-1,-9.710606689E0,-4.877307587E0,1.088845949E1
1.009346808E1,6.607260132E-1,-8.361162872E0,-5.461542664E0,1.000869880E1
1.010344208E1,1.698218536E0,-8.295898590E0,-5.069807281E0,9.869590948E0
1.011341508E1,2.490371246E0,-1.003468277E1,-3.949237518E0,1.106766842E1
1.012338908E1,1.830842743E0,-1.208916046E1,-2.142794037E0,1.241335378E1
1.013336208E1,7.891589355E-1,-1.316332672E1,-9.687854004E-1,1.322249929E1
1.014333608E1,-3.679348755E-1,-1.344893280E1,-4.016148376E-1,1.345995780E1
1.015330908E1,-1.598974915E0,-1.488953705E1,-3.905378723E-1,1.498023879E1
1.016328308E1,-2.006876678E0,-1.680734894E1,-4.141886902E-1,1.693180689E1
1.017325608E1,-1.592089233E0,-1.762973877E1,7.608677673E-1,1.771782597E1
1.018323008E1,1.062789917E-1,-1.783885391E1,2.206561432E0,1.797511940E1
1.019320308E1,2.559976501E0,-1.791684174E1,2.568508759E0,1.828015139E1
1.020317708E1,4.641697540E0,-1.793615158E1,2.002835083E0,1.863497352E1
1.021315008E1,5.646557922E0,-1.786998917E1,2.442919922E-1,1.874246002E1
1.022312408E1,5.967340851E0,-1.769739807E1,-1.555415497E0,1.874103446E1
1.023309708E1,6.235732727E0,-1.743065277E1,-2.478096771E0,1.867760644E1
1.024307108E1,6.941964111E0,-1.660287415E1,-3.695964203E0,1.837134854E1
1.025304408E1,7.457791443E0,-1.485226456E1,-5.165907440E0,1.740387932E1
1.026301808E1,7.318730621E0,-1.289313858E1,-3.489244080E0,1.523061603E1
1.027299108E1,6.340215454E0,-1.144819336E1,1.782044220E0,1.320738978E1
1.028296508E1,5.322631531E0,-9.649084625E0,5.223238220E0,1.219497675E1
1.029293808E1,4.367018738E0,-7.973918152E0,3.827989655E0,9.864467961E0
1.030291208E1,3.255430298E0,-7.329657898E0,8.113128662E-2,8.020492105E0
1.031288508E1,6.544390869E-1,-7.673043823E0,-3.298540649E0,8.377604816E0
1.032285908E1,-7.140151978E-1,-9.141789551E0,-3.314108276E0,9.750151156E0
1.033283208E1,-5.977070618E-1,-1.030831375E1,-1.187630310E0,1.039370251E1
1.034280558E1,-4.246669006E-1,-9.511221313E0,-1.218466187E-1,9.521476747E0
1.035277858E1,-5.830375671E-1,-8.319100342E0,8.864566040E-1,8.386487263E0
1.036275258E1,-8.116122437E-1,-7.272177429E0,1.429377594E0,7.455628699E0
1.037272558E1,-6.587800598E-1,-5.899531860E0,5.355862427E-1,5.960312069E0
1.038269958E1,-2.308200073E-1,-3.964056702E0,-5.800437927E-1,4.012913432E0
1.039267258E1,2.148033142E-1,-2.412383423E0,-4.733157349E-1,2.467744320E0
1.040264658E1,5.786965942E-1,-2.143093414E0,2.112107849E-1,2.229876482E0
1.041261958E1,1.491348724E0,-1.522184601E0,7.843688965E-1,2.270771134E0
1.042259358E1,1.855391693E0,-3.674858093E-1,1.166524200E0,2.222229256E0
1.043256658E1,1.610500946E0,-7.855664063E-1,1.075513458E0,2.089870110E0
1.044254058E1,1.813927917E0,-1.446591797E0,6.637197876E-1,2.413190062E0
1.045251358E1,2.125430145E0,-1.547631683E0,-1.519340515E-1,2.633571925E0
1.046248758E1,2.171683960E0,-1.329385529E0,-9.023236084E-1,2.701419071E0
1.047246058E1,2.163600769E0,-1.165476379E0,-1.820663910E0,3.058483374E0
1.048243458E1,1.882185974E0,-1.103355560E0,-2.811303864E0,3.558573724E0
1.049240758E1,1.045276337E0,-1.113534393E0,-3.944746857E0,4.230081468E0
1.050238158E1,2.395019531E-2,-1.906585236E0,-5.044958954E0,5.393259842E0
1.051235458E1,-5.938151550E-1,-3.585344238E0,-6.604565735E0,7.538408207E0
1.052232858E1,-9.285191345E-1,-5.717061310E0,-9.671537933E0,1.127322420E1
1.053230158E1,6.376739502E-2,-8.575517120E0,-1.205727676E1,1.479599551E1
1.054227558E1,1.425335999E0,-1.145627655E1,-1.357092911E1,1.781706968E1
1.055224858E1,2.694247284E0,-1.416968399E1,-1.633837418E1,2.179406762E1
1.056222258E1,3.695814514E0,-1.739173370E1,-1.687650513E1,2.451423814E1
1.057219558E1,4.045637054E0,-1.988165588E1,-1.289688080E1,2.404115127E1
1.058216958E1,4.888833618E0,-2.078502731E1,-9.581275635E0,2.340339500E1
1.059214258E1,7.817343750E0,-2.042622345E1,-1.038690033E1,2.421216979E1
1.060211658E1,8.913364563E0,-2.077020813E1,-1.012689102E1,2.476698479E1
1.061208958E1,5.750890961E0,-1.996158966E1,-3.235521698E0,2.102394847E1
1.062206358E1,2.446662140E0,-1.238000565E1,5.090614014E0,1.360753638E1
1.063203658E1,4.995411987E0,-4.944218445E-1,5.502856750E0,7.448491545E0
1.064201058E1,7.025789795E0,7.118596802E0,9.964778137E-1,1.005132383E1
1.065198358E1,6.351442108E0,7.804919586E0,-2.369572449E-1,1.006547243E1
1.066195758E1,3.758534088E0,3.475772095E0,1.548978882E0,5.348542392E0
1.067193058E1,1.655407562E0,-4.620890808E-1,1.630110168E0,2.368788652E0
1.068190458E1,1.686243439E0,-4.768184509E0,5.278024292E-1,5.085034499E0
1.069187758E1,3.103945312E0,-1.078088104E1,-7.782316589E-1,1.124577774E1
1.070185158E1,3.659140778E0,-1.669448364E1,-7.514373779E-1,1.710730117E1
1.071182458E1,3.201841736E0,-1.944785797E1,2.268532562E0,1.983978856E1
1.072179858E1,3.099454651E0,-2.053055649E1,3.523672485E0,2.106007209E1
1.073177158E1,1.100361786E0,-2.109293701E1,1.805395660E0,2.119863772E1
1.074174558E1,-1.282982025E0,-1.839719284E1,-1.995350647E-1,1.844295425E1
1.075171858E1,-1.570983124E0,-1.417537216E1,-9.876461792E-1,1.429631452E1
1.076169258E1,-1.347497864E0,-1.178199921E1,-3.254232788E-1,1.186326920E1
1.077166558E1,-8.860075378E-1,-1.048749115E1,-5.269042969E-2,1.052498248E1
1.078163958E1,-4.917274475E-1,-9.570947113E0,-4.736151123E-1,9.595266322E0
1.079161258E1,2.469863892E-2,-8.693621521E0,-1.130748596E0,8.766884142E0
1.080158658E1,7.339237976E-1,-8.231233063E0,-1.428629150E0,8.386466665E0
1.081155958E1,1.497186584E0,-8.417894897E0,-1.177152100E0,8.630655203E0
1.082153358E1,2.240391083E0,-8.889564056E0,-4.891827393E-1,9.180577382E0
1.083150658E1,2.357297974E0,-9.087452545E0,4.737648010E-1,9.400164923E0
1.084148058E1,2.393672333E0,-8.997789001E0,7.807763672E-1,9.343419389E0
1.085145358E1,2.250869293E0,-9.139244843E0,5.276527405E-1,9.427121845E0
1.086142758E1,1.681004333E0,-9.039252777E0,9.430389404E-2,9.194713675E0
1.087140058E1,9.231303406E-1,-8.691825256E0,3.023712158E-2,8.740761420E0
1.088137458E1,4.170327759E-1,-8.250093842E0,1.127156067E-1,8.261396343E0
1.089134758E1,2.260299683E-2,-8.122259674E0,-2.426454163E-1,8.125914712E0
1.090132158E1,-2.604583740E-1,-8.305179291E0,-8.912466431E-1,8.356923010E0
1.091129458E1,-1.271306305E0,-8.887618103E0,-9.982740784E-1,9.033411670E0
1.092126858E1,-1.655108185E0,-9.403445435E0,-8.893006897E-1,9.589318269E0
1.093124158E1,-1.187929688E0,-9.458680573E0,-1.498833160E0,9.650094091E0
1.094121558E1,-8.205935669E-1,-9.371412048E0,-1.873803406E0,9.592073644E0
1.095118858E1,-1.649569702E-1,-9.186097412E0,-1.312620392E0,9.280871121E0
1.096116258E1,1.084943848E0,-9.014554138E0,-1.633253632E0,9.225335056E0
1.097113558E1,1.527573395E0,-8.667875061E0,-1.344803467E0,8.903596740E0
1.098110958E1,1.825304260E0,-8.290809174E0,-1.160836029E0,8.568359976E0
1.099108258E1,1.769919434E0,-7.815248108E0,-1.387913818E0,8.132467188E0
1.100105658E1,1.098864899E0,-7.611821136E0,-1.370549927E0,7.811896836E0
1.101102958E1,1.341210938E-1,-7.780670013E0,-1.148262177E0,7.866086724E0
1.102100358E1,-6.762936401E-1,-8.304131470E0,-7.494914246E-1,8.365268074E0
1.103097658E1,-1.078956299E0,-8.871451721E0,-2.264790344E-1,8.939692114E0
1.104095058E1,-1.096918945E0,-9.629325714E0,-1.010398865E-1,9.692128452E0
1.105092358E1,-7.701484680E-1,-1.043884232E1,-6.038442993E-1,1.048461661E1
1.106089758E1,-1.441502380E-1,-1.066382446E1,-1.391206970E0,1.075515636E1
1.107087058E1,7.527845764E-1,-1.034693344E1,-2.234403534E0,1.061217581E1
1.108084458E1,1.572330322E0,-9.878407745E0,-2.653681641E0,1.034877715E1
1.109081758E1,1.865720215E0,-9.395661621E0,-2.373164978E0,9.868702105E0
1.110079158E1,1.081800385E0,-9.464668121E0,-1.755399628E0,9.686674485E0
1.111076458E1,-7.487429810E-1,-9.931547241E0,-1.021625519E0,1.001199108E1
1.112073858E1,-2.272723846E0,-1.090392517E1,-6.460565186E-1,1.115698198E1
1.113071158E1,-3.276087341E0,-1.128084137E1,-4.267625427E-1,1.175466956E1
1.114068558E1,-3.995641022E0,-1.135089569E1,-5.327421570E-1,1.204540553E1
1.115065858E1,-3.817212067E0,-1.174906769E1,-1.170266418E0,1.240891708E1
1.116063258E1,-3.260819092E0,-1.240889557E1,-2.109413452E0,1.300243268E1
1.117060558E1,-2.519111481E0,-1.292262726E1,-3.047063599E0,1.351387489E1
1.118057958E1,-1.596280518E0,-1.270228546E1,-2.985092468E0,1.314560552E1
1.119055358E1,-6.236032104E-1,-1.217388428E1,-2.018253021E0,1.235579559E1
1.120052658E1,-4.108955383E-1,-1.182555862E1,-2.226769409E0,1.204039758E1
1.121049958E1,9.741741943E-1,-1.213840805E1,-2.674787750E0,1.246773656E1
1.122047358E1,3.358715515E0,-1.151510422E1,-2.382295990E0,1.222922439E1
1.123044658E1,4.553830261E0,-1.132455048E1,-1.513802032E0,1.229936625E1
1.124042058E1,6.055507507E0,-1.321392151E1,-1.940863953E0,1.466437335E1
1.125039358E1,7.282206573E0,-1.504835678E1,-1.728455658E0,1.680687756E1
1.126036758E1,8.242609406E0,-1.622685608E1,-3.549119568E-1,1.820377517E1
1.127034058E1,7.792046356E0,-1.716959564E1,3.477268982E-1,1.885820551E1
1.128031458E1,8.213569794E0,-1.657443329E1,-5.777984619E-1,1.850698297E1
1.129028758E1,6.733747101E0,-1.602133347E1,-1.173409882E0,1.741847774E1
1.130026158E1,4.499493256E0,-1.577314957E1,-8.057743835E-1,1.642214843E1
1.131023458E1,3.359314270E0,-1.464045502E1,-3.180885315E-1,1.502428354E1
1.132020858E1,3.283272400E0,-1.372301285E1,-1.289268951E0,1.416909220E1
1.133018258E1,3.976480865E0,-1.312889832E1,-2.642454987E0,1.397007299E1
1.134015558E1,4.706961823E0,-1.238075409E1,-1.810036011E0,1.336842518E1
1.135012996E1,4.959037628E0,-1.175550430E1,6.027964783E-1,1.277291271E1
1.136010296E1,4.473746796E0,-1.151106262E1,2.384391632E0,1.257792894E1
1.137007696E1,3.770509186E0,-1.147633484E1,8.966354370E-2,1.208019207E1
1.138004996E1,3.370690613E0,-1.110346024E1,-5.019062805E-1,1.161465860E1
1.139002396E1,1.539548492E0,-1.097053665E1,-1.097817078E0,1.113229924E1
1.139999696E1,1.947450256E-1,-1.053509216E1,-1.435963898E0,1.063428817E1
1.140997096E1,-7.282356262E-1,-1.014185989E1,-7.816744995E-1,1.019797354E1
1.141994396E1,-6.406677246E-1,-9.234596558E0,-7.885601807E-1,9.290320547E0
1.142991696E1,-3.508703613E-1,-8.230035553E0,-9.925859070E-1,8.297097203E0
1.143989096E1,-1.010398865E-1,-6.964716797E0,-1.111887817E0,7.053636200E0
1.144986496E1,3.526666260E-1,-5.527106323E0,-7.538323975E-1,5.589413327E0
1.145983796E1,8.967851257E-1,-3.783681793E0,-3.782633972E-1,3.906859950E0
1.146981196E1,6.593788147E-1,-2.486928406E0,-6.885681152E-1,2.663403718E0
1.147978496E1,7.544311523E-2,-1.841620331E0,-5.412744141E-1,1.920998464E0
1.148975896E1,7.948471069E-2,-1.710493011E0,-3.712280273E-2,1.712741155E0
1.149973196E1,3.275189209E-1,-2.153721313E0,3.757186890E-2,2.178806046E0
1.150970596E1,1.663041687E-1,-1.410816193E0,-9.565109253E-2,1.423800737E0
1.151967896E1,3.849993896E-1,9.056167603E-2,-3.216810608E-1,5.098084464E-1
1.152965296E1,5.777984619E-1,6.610253906E-1,-4.875361633E-1,1.004239583E0
1.153962596E1,6.638694763E-1,5.888754272E-1,-8.854087830E-1,1.253573158E0
1.154959996E1,2.011816406E-1,3.447331238E-1,-1.631906433E0,1.680009996E0
1.155957296E1,-3.525169373E-1,-8.038284302E-2,-2.219434662E0,2.248692912E0
1.156954696E1,-4.146377563E-1,-4.599934387E-1,-2.423610077E0,2.501480409E0
1.157951996E1,1.496887207E-4,-8.803193665E-1,-2.823129272E0,2.957198184E0
1.158949396E1,2.604583740E-1,-2.016905823E0,-3.913162537E0,4.410055408E0
1.159946696E1,-3.921844482E-2,-3.290457458E0,-5.573958893E0,6.472840652E0
1.160944096E1,3.083587646E-1,-5.422324219E0,-8.163573761E0,9.805132412E0
1.161941396E1,1.379531250E0,-8.499924316E0,-1.178663956E1,1.459714670E1
1.162938796E1,2.934647369E0,-1.194875244E1,-1.523591675E1,1.958361558E1
1.163936096E1,5.424868927E0,-1.626996643E1,-1.553125259E1,2.313786545E1
1.164933496E1,7.072043610E0,-1.992925690E1,-1.333052902E1,2.499784161E1
1.165930796E1,6.525081024E0,-1.946896408E1,-1.090407486E1,2.324900198E1
1.166928196E1,6.075715485E0,-1.461860046E1,-9.553283844E0,1.849007924E1
1.167925496E1,5.470224609E0,-9.991123352E0,-7.619006195E0,1.370383736E1
1.168922896E1,2.787952423E0,-6.473737793E0,-5.314698029E0,8.827682304E0
1.169920196E1,1.083147583E0,-3.063529358E0,-5.436993713E0,6.333981485E0
1.170917596E1,1.176703033E0,-1.969903564E-1,-7.225773926E0,7.323608677E0
1.171914896E1,1.238823853E0,3.673361206E-1,-7.656428375E0,7.764696763E0
1.172912296E1,3.306623840E-1,-2.664758606E0,-2.959346008E0,3.995998603E0
1.173909596E1,2.073338470E0,-6.620283051E0,2.213896179E0,7.282047540E0
1.174906996E1,6.349196777E0,-1.105945175E1,4.759053497E0,1.361147909E1
1.175904296E1,8.947493591E0,-1.622730515E1,5.054239655E0,1.920750927E1
1.176901696E1,1.035322037E1,-2.267050644E1,-5.728886719E0,2.557266465E1
1.177898996E1,9.935738525E0,-3.181379288E1,-1.978316071E1,3.875835090E1
1.178896396E1,6.613097992E0,-2.808414871E1,-1.065334625E0,2.887191389E1
1.179893696E1,1.285526733E0,-1.400861893E1,1.499387009E1,2.055991545E1
1.180891096E1,2.116149445E0,-5.099295959E0,8.797655182E0,1.038651262E1
1.181888396E1,3.682641907E0,-3.155587921E0,-1.357077942E0,5.035995143E0
1.182885796E1,2.994672546E0,-3.440146179E0,-3.730542297E0,5.892335295E0
1.183883096E1,1.341809692E0,-6.006110229E0,2.946173401E0,6.823030928E0
1.184880496E1,1.287772064E0,-9.663754120E0,6.435866547E0,1.168190390E1
1.185877796E1,1.269809418E0,-1.220876175E1,5.863307190E0,1.360311180E1
1.186875196E1,4.734654236E-1,-1.439541458E1,4.204756165E0,1.500440285E1
1.187872496E1,-2.552192688E-1,-1.694611038E1,3.146756287E0,1.723768746E1
1.188869896E1,-1.146765289E0,-1.734443207E1,1.925595703E0,1.748863383E1
1.189867196E1,-1.464105377E0,-1.446487015E1,6.976991272E-1,1.455550951E1
1.190864596E1,-1.198407898E0,-1.052416489E1,5.375321960E-1,1.060580826E1
1.191861896E1,-7.696994019E-1,-8.087082825E0,8.216413879E-1,8.165074424E0
1.192859296E1,1.242416382E-2,-6.872957611E0,1.269959106E0,6.989313043E0
1.193856596E1,6.110293579E-1,-6.502478027E0,1.770218811E0,6.766775599E0
1.194853996E1,7.550299072E-1,-6.881190491E0,1.060095520E0,7.003188934E0
1.195851296E1,1.677860870E0,-7.070846100E0,-4.821473694E0,8.721163354E0
1.196848696E1,2.517913971E0,-7.732769623E0,-5.881269836E0,1.003618213E1
1.197845996E1,2.966381378E0,-8.673413544E0,-2.385888519E0,9.472063398E0
1.198843396E1,2.523302765E0,-9.380842438E0,-1.381177826E0,9.811978082E0
1.199840696E1,9.747729492E-1,-9.967921600E0,-1.751956787E0,1.016754621E1
1.200838096E1,-4.007167053E-1,-1.061846878E1,-1.870959320E0,1.078948293E1
1.201835396E1,-1.527723083E0,-1.083222427E1,-6.944059753E-1,1.096144243E1
1.202832796E1,-2.258353729E0,-1.036534515E1,4.164340210E-1,1.061668305E1
1.203830096E1,-1.351988525E0,-9.633666687E0,3.914360046E-1,9.735945201E0
1.204827496E1,-3.351530457E-1,-8.590785370E0,1.347198486E-2,8.597331117E0
1.205824796E1,2.531236267E-1,-7.751630402E0,1.640588379E-1,7.757497068E0
1.206822196E1,5.962101746E-1,-7.002438354E0,-6.017486572E-2,7.028031765E0
1.207819496E1,6.426136780E-1,-6.697821808E0,-4.050576782E-1,6.740759678E0
1.208816896E1,6.664141846E-1,-7.040309601E0,-7.421566772E-1,7.110616265E0
1.209814196E1,6.944059753E-1,-7.683372345E0,-9.900411987E-1,7.777955504E0
1.210811596E1,9.692344666E-1,-8.306975555E0,-1.321601715E0,8.467106319E0
1.211808896E1,1.296603699E0,-8.819509735E0,-1.649420013E0,9.065622952E0
1.212806296E1,1.664837952E0,-9.306147766E0,-1.767973480E0,9.617785705E0
1.213803596E1,1.830543365E0,-9.677824860E0,-1.463806000E0,9.957605688E0
1.214800996E1,1.599723358E0,-1.003303619E1,-1.097966766E0,1.021892661E1
1.215798296E1,1.068029022E0,-1.027972321E1,-1.238524475E0,1.040900274E1
1.216795696E1,3.520678711E-1,-1.039228912E1,-1.519939270E0,1.050875066E1
1.217792996E1,-5.447172546E-1,-1.064840652E1,-1.355431366E0,1.074813810E1
1.218790396E1,-1.333427124E0,-1.098700241E1,-9.434880066E-1,1.110776393E1
1.219787696E1,-1.762884064E0,-1.101020416E1,-6.026467896E-1,1.116671568E1
1.220785096E1,-1.864522705E0,-1.069810318E1,-4.987628174E-1,1.087081510E1
1.221782396E1,-1.722318420E0,-1.020413040E1,-5.641767883E-1,1.036382909E1
1.222779796E1,-1.510059814E0,-1.005040009E1,-1.183289337E0,1.023186181E1
1.223777096E1,-1.426683197E0,-1.035531601E1,-2.374661865E0,1.071946890E1
1.224774496E1,-1.481169891E0,-1.076965439E1,-2.453098755E0,1.114437138E1
1.225771796E1,-1.837578735E0,-1.110091553E1,-1.844314728E0,1.140212778E1
1.226769196E1,-1.888023834E0,-1.138577316E1,-1.513802032E0,1.164010572E1
1.227766496E1,-1.888023834E0,-1.160357025E1,-1.548080750E0,1.185765704E1
1.228763896E1,-1.728755035E0,-1.170895111E1,-1.729353790E0,1.196155486E1
1.229761196E1,-9.895921326E-1,-1.205607925E1,-1.835034027E0,1.223501898E1
1.230758596E1,-4.161346436E-2,-1.273955795E1,-1.472038879E0,1.282438954E1
1.231755896E1,5.013075256E-1,-1.330358505E1,-6.282435608E-1,1.332784208E1
1.232753296E1,1.706900482E0,-1.255978180E1,-1.004860382E0,1.271500580E1
1.233750596E1,2.979553986E0,-1.128637985E1,-2.648143158E0,1.196966058E1
1.234747975E1,3.397484894E0,-1.085602478E1,-2.335892487E0,1.161260399E1
1.235745275E1,5.604046326E0,-1.194725555E1,-2.066602478E0,1.335713653E1
1.236742675E1,8.050259399E0,-1.337947723E1,-1.939816132E0,1.573467426E1
1.237739975E1,8.601862335E0,-1.543874496E1,-1.871707764E0,1.777217408E1
1.238737375E1,9.103169861E0,-1.710403198E1,-1.405876465E0,1.942658231E1
1.239734675E1,1.056622742E1,-1.659164749E1,-7.212002563E-1,1.968370032E1
1.240732075E1,9.785301361E0,-1.589065521E1,-9.089099121E-1,1.868398146E1
1.241729375E1,6.490802307E0,-1.602163284E1,-1.010997620E0,1.731604313E1
1.242726775E1,3.576811981E0,-1.543245804E1,-3.953279114E-1,1.584647056E1
1.243724075E1,2.491718445E0,-1.338396790E1,-7.732919312E-1,1.363588053E1
1.244721475E1,2.113754425E0,-1.202763840E1,-4.568499756E-1,1.222050552E1
1.245718775E1,1.825453949E0,-1.230501160E1,2.121238861E0,1.261924113E1
1.246716175E1,1.148112488E0,-1.216714828E1,2.516117706E0,1.247752011E1
1.247713475E1,7.565267944E-1,-1.185115540E1,-7.340734863E-1,1.189794440E1
1.248710875E1,8.252339172E-1,-1.257699600E1,-2.922821960E0,1.293849789E1
1.249708175E1,1.533560944E0,-1.304806641E1,-1.508862305E0,1.322423955E1
1.250705575E1,1.855840759E0,-1.267115021E1,-1.022972717E0,1.284712675E1
1.251702875E1,1.581161957E0,-1.154773636E1,-1.136736145E0,1.171078380E1
1.252700275E1,1.712139587E0,-1.048719177E1,-9.475296021E-1,1.066819692E1
1.253697575E1,2.305954742E0,-9.323212280E0,-5.086422729E-1,9.617610486E0
1.254694975E1,2.455194397E0,-8.264463959E0,-2.540217590E-1,8.625188178E0
1.255692275E1,2.164349213E0,-7.024442596E0,-5.987548828E-3,7.350322248E0
1.256689675E1,1.674717407E0,-5.139711914E0,-1.646575928E-3,5.405674765E0
1.257686975E1,1.344653778E0,-3.379671936E0,-3.682342529E-2,3.637531050E0
1.258684375E1,1.029708710E0,-2.532284088E0,-7.524851990E-1,2.835312453E0
1.259681775E1,9.183403015E-1,-2.252366180E0,-8.324189758E-1,2.570879941E0
1.260679075E1,9.493258667E-1,-2.391277313E0,-7.089257812E-1,2.668708031E0
1.261676375E1,7.923023987E-1,-2.692151642E0,-6.182144165E-1,2.873606204E0
1.262673775E1,7.743397522E-1,-2.885250092E0,-9.690847778E-1,3.140604313E0
1.263671175E1,1.190474396E0,-2.674787750E0,-1.673968964E0,3.372519961E0
1.264668475E1,9.047186279E-1,-2.603086853E0,-2.029928741E0,3.422745631E0
1.265665875E1,4.561015320E-1,-2.702330475E0,-2.264191589E0,3.554881455E0
1.266663175E1,2.618055725E-1,-2.843786316E0,-2.616409149E0,3.873145957E0
1.267660575E1,7.694000244E-2,-2.834505615E0,-3.079845428E0,4.186381458E0
1.268657875E1,-1.002914429E-1,-2.545606384E0,-3.428171082E0,4.271127158E0
1.269655275E1,-9.475296021E-2,-2.229763184E0,-3.758534088E0,4.371201262E0
1.270652575E1,-1.225950623E-1,-1.860630798E0,-4.245770874E0,4.637191697E0
1.271649975E1,-5.059478760E-2,-1.641486511E0,-5.016667786E0,5.278635569E0
1.272647275E1,-1.466949463E-2,-2.100881195E0,-6.351591797E0,6.690040011E0
1.273644675E1,-5.957611084E-1,-3.052901459E0,-8.295898590E0,8.859857337E0
1.274641975E1,-1.213975525E0,-4.710853729E0,-1.018841309E1,1.129024538E1
1.275639375E1,-1.100361786E0,-7.167694702E0,-1.079135925E1,1.300154137E1
1.276636675E1,-8.644523621E-1,-9.757309570E0,-1.126287872E1,1.492664748E1
1.277634075E1,1.232237549E0,-1.256726624E1,-1.055425232E1,1.645742483E1
1.278631375E1,4.234095154E0,-1.523831177E1,-9.854906616E0,1.863472274E1
1.279628775E1,6.858288116E0,-1.650647461E1,-1.061502594E1,2.078890559E1
1.280626075E1,7.726931763E0,-1.416429520E1,-1.092533066E1,1.948577899E1
1.281623475E1,5.909411316E0,-9.658065948E0,-9.164841614E0,1.456687001E1
1.282620775E1,3.042423248E0,-5.733527069E0,-7.711364136E0,1.007942502E1
1.283618175E1,8.909472656E-1,-2.707270203E0,-6.565347290E0,7.157295859E0
1.284615475E1,-2.683918762E-1,-9.334588623E-1,-4.295317841E0,4.403763731E0
1.285612875E1,3.468287659E-1,-9.530680847E-1,-4.415817261E-2,1.015174325E0
1.286610175E1,3.650009766E0,-3.362607422E0,3.751049652E0,6.220938310E0
1.287607575E1,8.012537842E0,-6.529871063E0,4.160148926E0,1.114211909E1
1.288604875E1,1.094928085E1,-1.013961456E1,2.281854858E0,1.509653590E1
1.289602275E1,1.090527237E1,-1.565040482E1,-1.053209839E0,1.910417199E1
1.290599575E1,5.433999939E0,-2.443728241E1,-1.251831802E1,2.798959473E1
1.291596975E1,-2.125130768E0,-3.091236740E1,-1.679013474E1,3.524200992E1
1.292594275E1,-1.505569153E0,-2.544648376E1,1.142124939E-1,2.549124004E1
1.293591675E1,1.419348450E0,-1.158665543E1,8.170609131E0,1.424864862E1
1.294588975E1,4.820276184E0,-4.074976044E0,5.239105225E-3,6.311934703E0
1.295586375E1,6.514752502E0,-3.146456909E0,-6.890770569E0,9.991241679E0
1.296583675E1,5.015769653E0,-3.278482361E0,2.282902679E0,6.412334711E0
1.297581075E1,2.340383148E0,-5.213508453E0,7.520361328E0,9.445310910E0
1.298578375E1,3.656895447E-1,-7.877817993E0,4.271667023E0,8.968884230E0
1.299575775E1,2.769241333E-1,-1.035007690E1,2.259102173E0,1.059737333E1
1.300573075E1,6.815327454E-1,-1.239841736E1,2.369722137E0,1.264123502E1
1.301570475E1,5.174739075E-1,-1.406804535E1,1.625170441E0,1.417105706E1
1.302567775E1,-1.004411316E-1,-1.532453247E1,3.372486877E-1,1.532857203E1
1.303565175E1,-2.245330811E-1,-1.539234146E1,-6.818321228E-1,1.540907154E1
1.304562475E1,2.767744446E-1,-1.390742935E1,-2.120191040E0,1.407083527E1
1.305559875E1,8.554710388E-1,-1.219648727E1,-2.784210205E0,1.253945609E1
1.306557175E1,-2.694396973E-3,-1.077519287E1,-1.738634491E0,1.091456085E1
1.307554575E1,1.260379028E-1,-9.779463501E0,-9.056167603E-1,9.822114520E0
1.308551875E1,5.734574890E-1,-8.968000946E0,-5.596861267E-1,9.003729395E0
1.309549275E1,1.356628876E0,-8.490194550E0,-9.922865295E-1,8.654968397E0
1.310546575E1,1.666783905E0,-8.332422638E0,-1.278790741E0,8.593179933E0
1.311543975E1,1.450932770E0,-8.408165131E0,-8.373587036E-1,8.573425008E0
1.312541275E1,1.214274902E0,-8.573870544E0,1.170565796E-1,8.660220661E0
1.313538675E1,1.332978058E0,-8.807235260E0,4.498146057E-1,8.918887633E0
1.314535975E1,1.325044556E0,-8.919352112E0,3.770658875E-1,9.025118495E0
1.315533375E1,4.760101318E-1,-9.421557770E0,3.411405945E-1,9.439741170E0
1.316530675E1,-4.983137512E-1,-9.378447418E0,-3.302133179E-1,9.397480163E0
1.317528075E1,-2.712359619E-1,-8.922944641E0,-1.562301178E0,9.062742134E0
1.318525375E1,2.085163879E-1,-8.516539764E0,-2.360591125E0,8.840097234E0
1.319522775E1,6.524931335E-1,-7.958051147E0,-2.520159302E0,8.373023842E0
1.320520075E1,7.782316589E-1,-7.557633820E0,-2.225571899E0,7.916858199E0
1.321517475E1,5.486091614E-1,-7.336244202E0,-1.757195892E0,7.563675588E0
1.322514775E1,-5.912704468E-2,-7.383545837E0,-1.267115021E0,7.491717134E0
1.323512175E1,-9.954299927E-1,-7.779622192E0,-6.644682312E-1,7.871144793E0
1.324509475E1,-1.447789307E0,-8.364905090E0,-1.529818726E-1,8.490649828E0
1.325506875E1,-1.078956299E0,-8.853489075E0,2.965333557E-1,8.923919964E0
1.326504175E1,-6.896159363E-1,-9.048533478E0,4.447251892E-1,9.085665013E0
1.327501575E1,-3.426374817E-1,-9.263636169E0,1.161584473E-1,9.270698372E0
1.328498875E1,2.131567383E-1,-9.758357391E0,-7.384144592E-1,9.788576540E0
1.329496275E1,6.565347290E-1,-1.046264282E1,-2.350561981E0,1.074351313E1
1.330493575E1,8.342152405E-1,-1.067145859E1,-3.811523895E0,1.136237906E1
1.331490975E1,8.554710388E-1,-1.029618896E1,-4.172573090E0,1.114242811E1
1.332488275E1,8.144563293E-1,-1.000594254E1,-3.502117310E0,1.063235867E1
1.333485675E1,6.334826660E-1,-1.026714935E1,-2.606679382E0,1.061180633E1
1.334482983E1,3.758683777E-1,-1.058448944E1,-1.627116394E0,1.071541887E1
1.335480383E1,8.457412720E-2,-1.059706329E1,-5.737568665E-1,1.061292138E1
1.336477683E1,-2.296224976E-1,-1.060709244E1,3.555107117E-1,1.061553222E1
1.337475083E1,-1.010548553E0,-1.074046509E1,6.535409546E-1,1.080767850E1
1.338472383E1,-1.827100525E0,-1.109208389E1,2.493814087E-1,1.124432357E1
1.339469783E1,-2.367027740E0,-1.175370804E1,5.433700562E-2,1.198980506E1
1.340467083E1,-2.373913422E0,-1.274000702E1,3.192860413E-1,1.296322442E1
1.341464483E1,-2.051932983E0,-1.370864273E1,-1.785786438E-1,1.386251077E1
1.342461783E1,-1.638343048E0,-1.372001907E1,-1.445843353E0,1.389293181E1
1.343459183E1,-1.292113037E0,-1.342618011E1,-2.492466888E0,1.371656880E1
1.344456483E1,-6.875202942E-1,-1.353934479E1,-2.673290863E0,1.381785170E1
1.345453883E1,6.688092041E-1,-1.331346451E1,-2.590363312E0,1.357960327E1
1.346451183E1,3.010389862E0,-1.241473343E1,-3.545826416E0,1.325748612E1
1.347448583E1,5.310955811E0,-1.087144272E1,-5.111720123E0,1.313484682E1
1.348445883E1,6.249953156E0,-9.469907227E0,-4.578528900E0,1.223535795E1
1.349443283E1,6.333329773E0,-1.009410919E1,-3.979025574E0,1.256323011E1
1.350440583E1,5.584586792E0,-1.257280472E1,-3.580554199E0,1.421560398E1
1.351437983E1,4.037853241E0,-1.440364746E1,-1.679806824E0,1.505294224E1
1.352435283E1,3.796555023E0,-1.505284744E1,-7.364685059E-1,1.554169978E1
1.353432683E1,3.467688904E0,-1.504087234E1,-3.959266663E-1,1.544051376E1
1.354430083E1,2.605032806E0,-1.510089752E1,2.478845215E-1,1.532595017E1
1.355427383E1,2.469714203E0,-1.510239441E1,7.548802185E-1,1.532160727E1
1.356424683E1,2.698737946E0,-1.462937805E1,6.689588928E-1,1.489125229E1
1.357422083E1,3.270698547E0,-1.390054367E1,-5.278024292E-1,1.428989709E1
1.358419483E1,3.600013733E0,-1.332768494E1,-2.230062561E0,1.398429346E1
1.359416783E1,4.398603058E0,-1.290780807E1,-8.457412720E-1,1.366288756E1
1.360414183E1,3.235970764E0,-1.325897781E1,-2.800675964E-1,1.365102331E1
1.361411483E1,1.793869629E0,-1.346105759E1,-2.304457855E0,1.377419927E1
1.362408883E1,-4.568499756E-1,-1.417806656E1,-2.140848083E0,1.434606266E1
1.363406183E1,-1.326541443E0,-1.474478806E1,-2.617307281E0,1.503392113E1
1.364403583E1,-2.462529144E0,-1.461021790E1,-2.158960419E0,1.497276283E1
1.365400883E1,-2.298170929E0,-1.292726761E1,-1.719624023E0,1.324208987E1
1.366398283E1,-1.139280853E0,-1.107726471E1,-1.019080811E0,1.118223055E1
1.367395583E1,-1.025367737E-1,-9.848919067E0,-4.011657715E-1,9.857619112E0
1.368392983E1,3.954776001E-1,-8.565637665E0,-1.204994202E-1,8.575609089E0
1.369390283E1,8.237370300E-1,-5.621260529E0,-1.520837402E-1,5.683330194E0
1.370387683E1,7.370672607E-1,-2.820734253E0,-2.926414490E-1,2.930093666E0
1.371384983E1,5.818400574E-1,-1.343755646E0,-1.014141083E0,1.781207238E0
1.372382383E1,4.619393921E-1,-1.541644135E0,-3.608995056E-1,1.649334136E0
1.373379683E1,2.860551453E-1,-1.786534882E0,4.821473694E-1,1.872431712E0
1.374377083E1,6.475534058E-1,-1.978435822E0,1.213526459E0,2.409601664E0
1.375374383E1,1.230291595E0,-2.023043060E0,9.705816650E-1,2.558974287E0
1.376371783E1,1.704056396E0,-1.673819275E0,4.294569397E-1,2.426914179E0
1.377369083E1,1.971699829E0,-1.247505798E0,8.981323242E-4,2.333210608E0
1.378366483E1,1.869761810E0,-1.155447235E0,-4.833448792E-1,2.250486572E0
1.379363783E1,1.479822693E0,-1.422641602E0,-1.182840271E0,2.369155005E0
1.380361183E1,9.169931030E-1,-1.708397369E0,-1.957778778E0,2.755430214E0
1.381358483E1,4.231700134E-1,-1.509161682E0,-2.319277039E0,2.799229863E0
1.382355883E1,5.376818848E-1,-1.152603149E0,-2.793790283E0,3.069667731E0
1.383353183E1,9.776170349E-1,-1.003662872E0,-3.601660309E0,3.864586810E0
1.384350583E1,1.130000153E0,-9.717791748E-1,-4.543352051E0,4.781558634E0
1.385347883E1,7.795788574E-1,-1.177601166E0,-5.627098389E0,5.801613911E0
1.386345283E1,8.726852417E-2,-2.071991272E0,-6.608757019E0,6.926502217E0
1.387342583E1,-2.716850281E-1,-3.532803497E0,-7.309449921E0,8.122965681E0
1.388339983E1,3.095562744E-1,-5.692662048E0,-8.421487427E0,1.016974320E1
1.389337283E1,1.697470093E0,-8.690178680E0,-1.007554779E1,1.341332448E1
1.390334683E1,3.837120667E0,-1.157303375E1,-1.074181229E1,1.624946573E1
1.391331983E1,4.444108429E0,-1.395068939E1,-1.128637985E1,1.848659526E1
1.392329383E1,6.458619232E0,-1.695090042E1,-1.130419281E1,2.137361838E1
1.393326683E1,7.445816345E0,-1.773377243E1,-1.026789780E1,2.180267394E1
1.394324083E1,5.140460358E0,-1.344459183E1,-9.159153442E0,1.706081692E1
1.395321383E1,2.104922791E0,-9.821825409E0,-9.053323517E0,1.352263366E1
1.396318783E1,2.071691895E-1,-8.197104034E0,-9.389374695E0,1.246578480E1
1.397316083E1,1.140628052E0,-8.649163971E0,-5.948629761E0,1.055913187E1
1.398313483E1,4.553979950E0,-1.049467621E1,-2.446362762E0,1.169878852E1
1.399310783E1,8.365503845E0,-1.235186417E1,-3.358715515E0,1.529153926E1
1.400308183E1,8.667575684E0,-1.401625305E1,-3.594026184E0,1.686710533E1
1.401305483E1,3.809128876E0,-1.515104324E1,-3.002007294E0,1.590835070E1
1.402302883E1,-1.360071716E0,-1.609692627E1,-5.345833282E0,1.701583862E1
1.403300183E1,-2.483934631E0,-1.468895416E1,-1.424886932E0,1.496548056E1
1.404297583E1,2.547702026E-1,-9.760902100E0,7.328460388E0,1.220845811E1
1.405294883E1,2.260748749E0,-5.809419250E0,5.021457825E0,8.004709590E0
1.406292283E1,3.839964752E0,-4.881947937E0,-7.937992859E-1,6.261698034E0
1.407289583E1,3.664080505E0,-5.311105499E0,-3.551215210E0,7.365083641E0
1.408286983E1,2.240690460E0,-6.931785278E0,-1.026265869E0,7.356871789E0
1.409284283E1,1.544787598E0,-9.073830872E0,9.825567627E-1,9.256683704E0
1.410281683E1,6.430627441E-1,-1.065439407E1,1.313368835E0,1.075428196E1
1.411278983E1,4.397854614E-1,-1.099613342E1,1.979783020E0,1.118158765E1
1.412276383E1,-7.634124756E-3,-1.168320465E1,1.000968475E0,1.172600815E1
1.413273683E1,-1.581311646E0,-1.314850754E1,-2.244582367E0,1.343212370E1
1.414271083E1,-2.026485901E0,-1.373843079E1,-3.513643341E0,1.432469250E1
1.415268383E1,-1.460961914E-1,-1.277458511E1,-2.727178802E0,1.306326426E1
1.416265783E1,1.004860382E0,-1.127410538E1,-2.159858551E0,1.152302848E1
1.417263083E1,2.130818939E0,-9.973909149E0,-2.279459839E0,1.045060717E1
1.418260483E1,1.855541382E0,-9.593400421E0,-2.136058044E0,1.000195528E1
1.419257783E1,1.096020813E0,-9.558972015E0,-1.069974976E0,9.680911840E0
1.420255183E1,1.100361786E0,-9.432934113E0,-2.993774414E-3,9.496896914E0
1.421252483E1,1.335672455E0,-9.079818420E0,4.391867065E-1,9.188036157E0
1.422249883E1,1.521136780E0,-9.046437836E0,1.712438965E-1,9.175032375E0
1.423247183E1,1.569935303E0,-9.002129974E0,-8.562194824E-2,9.138400957E0
1.424244583E1,1.447190552E0,-8.662037201E0,-3.511697388E-1,8.789116517E0
1.425241983E1,1.117575989E0,-8.317154388E0,-8.734336853E-1,8.437234121E0
1.426239283E1,5.152285767E-1,-8.583001556E0,-1.652114410E0,8.755732878E0
1.427236683E1,-2.969824219E-1,-9.468709717E0,-1.923799438E0,9.666729878E0
1.428233983E1,-1.032403107E0,-1.002285736E1,-1.868863678E0,1.024774011E1
1.429231383E1,-5.159770203E-1,-9.578730927E0,-2.451901245E0,9.901017027E0
1.430228683E1,-2.689906311E-1,-8.942404175E0,-2.214794312E0,9.216521156E0
1.431226083E1,-1.344204712E-1,-8.061186676E0,-1.489253082E0,8.198699545E0
1.432223383E1,-3.249742126E-1,-7.552394714E0,-6.472540283E-1,7.587042371E0
1.433220783E1,8.816665649E-2,-7.187752991E0,-6.885681152E-3,7.188297005E0
1.434218083E1,1.137334900E0,-7.147037659E0,1.371148682E-1,7.238264879E0
1.435215533E1,2.285896454E0,-7.324867859E0,-3.143463135E-2,7.673330430E0
1.436212833E1,3.254532166E0,-7.352410583E0,-4.569996643E-1,8.053494254E0
1.437210233E1,3.277733917E0,-7.455546112E0,-9.026229858E-1,8.194109818E0
1.438207533E1,2.527643738E0,-7.979456635E0,-1.347048798E0,8.477927312E0
1.439204933E1,1.687440948E0,-9.050778809E0,-1.644779663E0,9.352505233E0
1.440202233E1,6.539900208E-1,-1.014844620E1,-2.115401001E0,1.038718367E1
1.441199633E1,7.319778442E-2,-1.089524323E1,-2.812501373E0,1.125263733E1
1.442196933E1,1.508862305E-1,-1.129326553E1,-3.813469849E0,1.192070322E1
1.443194333E1,5.861810303E-1,-1.117920273E1,-4.680766296E0,1.213374447E1
1.444191633E1,9.922865295E-1,-1.050515442E1,-4.370311890E0,1.142114390E1
1.445189033E1,6.493496704E-1,-1.012973511E1,-2.635718994E0,1.048714465E1
1.446186333E1,-9.277706909E-1,-1.051608170E1,-9.027726746E-1,1.059545805E1
1.447183733E1,-2.575993195E0,-1.094329330E1,7.138655090E-1,1.126503499E1
1.448181033E1,-4.262086945E0,-1.122845032E1,1.269210663E0,1.207701856E1
1.449178433E1,-4.785847778E0,-1.107906097E1,9.886940002E-1,1.210898207E1
1.450175733E1,-4.021986237E0,-1.052281769E1,1.766326904E-2,1.126527307E1
1.451173133E1,-2.352657623E0,-9.965825958E0,-9.225315857E-1,1.028123288E1
1.452170433E1,-5.234614563E-1,-9.914782104E0,-2.607427826E0,1.026526161E1
1.453167833E1,1.568887482E0,-9.969268799E0,-4.768034821E0,1.116162553E1
1.454165133E1,2.778372345E0,-1.046922913E1,-5.445376282E0,1.212337553E1
1.455162533E1,2.479294281E0,-1.189441544E1,-4.021537170E0,1.279831160E1
1.456159933E1,1.262474670E0,-1.350476669E1,-2.623893585E0,1.381511431E1
1.457157233E1,-1.017733612E0,-1.481035172E1,-1.384470978E0,1.490969683E1
1.458154633E1,-3.179388428E0,-1.490255997E1,1.811233521E-2,1.523795040E1
1.459151933E1,-3.367547150E0,-1.407014099E1,2.980302429E-1,1.447059305E1
1.460149333E1,-2.170037384E0,-1.504476425E1,-1.541793823E-1,1.520124222E1
1.461146633E1,1.833686829E-1,-1.641112289E1,1.568737793E-1,1.641289701E1
1.462144033E1,1.739083557E0,-1.684836365E1,7.908055115E-1,1.695633046E1
1.463141333E1,3.580254822E0,-1.691228073E1,1.201401672E0,1.732878617E1
1.464138733E1,5.409001923E0,-1.702589447E1,9.584568787E-1,1.789013762E1
1.465136033E1,5.764362946E0,-1.712154556E1,-8.247848511E-2,1.806604565E1
1.466133433E1,5.858217773E0,-1.728485596E1,-1.181493073E0,1.828881863E1
1.467130733E1,7.211703186E0,-1.722183701E1,-1.998643799E0,1.877751074E1
1.468128133E1,8.428822174E0,-1.680330734E1,-3.914360046E0,1.920204144E1
1.469125433E1,8.569679260E0,-1.500614456E1,-5.234165497E0,1.805603128E1
1.470122833E1,7.613168335E0,-1.257190659E1,-2.385439453E0,1.488971083E1
1.471120133E1,4.359683990E0,-1.125629242E1,2.829116821E0,1.239817993E1
1.472117533E1,1.402882690E0,-1.032537827E1,6.113287354E0,1.208113399E1
1.473114833E1,6.477030945E-1,-9.612859955E0,1.840722198E0,9.808917067E0
1.474112233E1,-1.371597748E0,-9.566456451E0,-2.144440613E0,9.899343158E0
1.475109533E1,-2.210752716E0,-1.092667786E1,-3.134631500E0,1.158039858E1
1.476106933E1,-3.084485779E0,-1.170356232E1,-1.892065430E0,1.225019735E1
1.477104233E1,-2.318528595E0,-1.111483658E1,-8.795709229E-1,1.138809958E1
1.478101633E1,-2.083217926E0,-1.023945694E1,1.371298370E0,1.053882036E1
1.479098933E1,-2.155218201E0,-9.373208313E0,2.844684448E0,1.002966745E1
1.480096333E1,-1.287622375E0,-7.832312622E0,1.940564575E0,8.171222874E0
1.481093633E1,-9.000782776E-1,-5.897286530E0,9.331594849E-1,6.038121889E0
1.482091033E1,-2.872526550E-1,-3.106639709E0,-2.894979858E-1,3.133294346E0
1.483088333E1,1.131646729E0,-7.990383911E-1,-2.981799316E-1,1.417038440E0
1.484085733E1,2.239792328E0,-3.318598938E-1,8.414002991E-1,2.415523778E0
1.485083133E1,2.329904938E0,-5.706134033E-1,1.427880707E0,2.791576613E0
1.486080433E1,2.124232635E0,-9.491761780E-1,1.479074249E0,2.756983921E0
1.487077833E1,2.133363647E0,-1.020577698E0,1.134790192E0,2.623083695E0
1.488075133E1,2.168989563E0,-8.692424011E-1,3.299139404E-1,2.359860437E0
1.489072533E1,2.200124817E0,-6.393205261E-1,-7.649093628E-1,2.415443288E0
1.490069833E1,2.243235168E0,-8.170010376E-1,-1.486408997E0,2.812295579E0
1.491067233E1,1.795067139E0,-9.364526367E-1,-2.252366180E0,3.028590924E0
1.492064533E1,1.206940155E0,-1.129251709E0,-3.238365784E0,3.635784222E0
1.493061933E1,9.521699524E-1,-1.647773438E0,-4.524191895E0,4.908166380E0
1.494059233E1,9.247769165E-1,-2.040107574E0,-5.990991669E0,6.396032554E0
1.495056633E1,1.066232758E0,-2.305505676E0,-7.565118256E0,7.980176874E0
1.496053933E1,1.238973541E0,-3.130739594E0,-8.996441803E0,9.605860240E0
1.497051333E1,9.610015869E-1,-4.337230682E0,-1.106229584E1,1.192096822E1
1.498048633E1,4.105961609E-1,-6.930887146E0,-1.175161240E1,1.364940218E1
1.499046033E1,3.397933960E-1,-1.110091553E1,-9.559421082E0,1.465361104E1
1.500043333E1,5.300477600E-1,-1.556957291E1,-8.160430298E0,1.758650544E1
1.501040733E1,1.923649750E0,-1.919278839E1,-8.819210358E0,2.120947962E1
1.502038033E1,4.360881500E0,-1.866079468E1,-9.220376129E0,2.126635562E1
1.503035433E1,6.081553345E0,-1.250559448E1,-9.793833618E0,1.700865548E1
1.504032733E1,5.930367737E0,-6.940018158E0,-1.098161362E1,1.428036943E1
1.505030133E1,2.383343811E0,-4.154760132E0,-7.529642029E0,8.924005186E0
1.506027433E1,5.287005615E-1,-4.236190796E0,2.533331909E0,4.964132080E0
1.507024833E1,5.108127594E0,-7.932903442E0,3.813320160E0,1.017670552E1
1.508022133E1,9.417216797E0,-1.226579315E1,1.118623810E0,1.550435336E1
1.509019533E1,1.130898285E1,-1.656560165E1,2.086660767E0,2.016597145E1
1.510016933E1,1.022688309E1,-2.134950348E1,-3.095413055E0,2.387408676E1
1.511014233E1,2.555186462E0,-2.522419601E1,-1.403586227E1,2.897920758E1
1.512011633E1,-3.619473267E-1,-1.723875183E1,-7.551795959E-1,1.725908071E1
1.513008933E1,2.302960968E0,-6.625971222E0,7.305707703E0,1.012820265E1
1.514006333E1,3.636986847E0,-3.496728516E0,2.515968018E0,5.637807970E0
1.515003633E1,4.006268921E0,-2.976859589E0,-8.419990540E-1,5.061703872E0
1.516001033E1,2.909349976E0,-3.697161713E0,1.252445526E0,4.868464009E0
1.516998333E1,1.326242065E0,-7.496560822E0,4.326602783E0,8.756530923E0
1.517995733E1,-1.910028076E-1,-1.080138840E1,5.952371979E0,1.233439117E1
1.518993033E1,3.382965088E-2,-1.292292664E1,5.516029358E0,1.405096997E1
1.519990433E1,-8.888516235E-1,-1.617611160E1,3.289559326E0,1.653111746E1
1.520987733E1,-2.265987854E0,-1.993554382E1,1.640139313E0,2.013083867E1
1.521985133E1,-2.767594757E0,-1.851335129E1,-3.891906738E-2,1.871911513E1
1.522982433E1,-2.099533997E0,-1.232521957E1,-6.824308777E-1,1.252137343E1
1.523979833E1,-1.175954590E0,-8.966354370E0,-4.634362793E-1,9.055007072E0
1.524977133E1,-2.296224976E-1,-7.980205078E0,-5.986051941E-1,8.005918296E0
1.525974533E1,6.908134460E-1,-7.407795410E0,-2.777474213E0,7.941474615E0
1.526971833E1,1.515598297E0,-7.257807312E0,-5.179678802E0,9.044439047E0
1.527969233E1,2.336940308E0,-8.147706757E0,-4.145180054E0,9.435514457E0
1.528966533E1,3.042423248E0,-8.636739807E0,-7.297325134E-1,9.185974268E0
1.529963933E1,2.379002838E0,-9.185199280E0,-8.777746582E-1,9.528799959E0
1.530961233E1,1.244661713E0,-1.013242950E1,-2.281555481E0,1.046044004E1
1.531958633E1,-2.818638611E-1,-1.034738251E1,-1.994901581E0,1.054169836E1
1.532955933E1,-7.027885437E-1,-9.916278992E0,-1.259031830E0,1.002056196E1
1.533953333E1,-9.592053223E-1,-9.839638367E0,-1.070873108E0,9.944110179E0
1.534950738E1,-4.397854614E-1,-9.416618042E0,-8.503816223E-1,9.465160089E0
1.535948038E1,6.656657410E-1,-8.428073730E0,-5.439688110E-1,8.471802627E0
1.536945438E1,1.545985107E0,-7.284451904E0,-6.310876465E-1,7.473391540E0
1.537942738E1,2.243833923E0,-6.418951721E0,-9.623487854E-1,6.867593979E0
1.538940137E1,2.909499664E0,-6.295009460E0,-1.790726166E0,7.162334299E0
1.539937438E1,2.981200562E0,-6.734794922E0,-2.744393005E0,7.859816308E0
1.540934838E1,2.468217316E0,-7.286996613E0,-2.829266510E0,8.197387714E0
1.541932137E1,1.687141571E0,-7.921826477E0,-2.222727814E0,8.398946383E0
1.542929538E1,6.045927429E-1,-8.509055328E0,-1.411714325E0,8.646530651E0
1.543926838E1,-9.969268799E-2,-8.978329468E0,-4.673281860E-1,8.991036331E0
1.544924237E1,-4.748126221E-1,-9.507778473E0,2.197430420E-1,9.522162859E0
1.545921538E1,-6.512956238E-1,-1.000025436E1,6.288423157E-1,1.004115113E1
1.546918938E1,-5.930667114E-1,-1.030981064E1,6.596781921E-1,1.034790311E1
1.547916237E1,-3.796105957E-1,-1.038480469E1,-2.544708252E-3,1.039174091E1
1.548913638E1,-9.370513916E-2,-1.036115387E1,-1.202299805E0,1.043109846E1
1.549910938E1,3.851490784E-1,-1.055155792E1,-2.511926422E0,1.085327088E1
1.550908337E1,7.322772217E-1,-1.079165863E1,-3.275338898E0,1.130150303E1
1.551905638E1,5.007087708E-1,-1.098266144E1,-3.161126404E0,1.143950531E1
1.552903038E1,-2.065704346E-2,-1.094898148E1,-2.672542419E0,1.127045274E1
1.553900337E1,-3.832031250E-1,-1.069286407E1,-2.210004272E0,1.092558033E1
1.554897738E1,-4.683760071E-1,-1.035890854E1,-1.470691681E0,1.047326579E1
1.555895038E1,-2.812651062E-1,-1.011596375E1,-6.158193970E-1,1.013859290E1
1.556892437E1,2.365081787E-1,-9.691147156E0,-7.750881958E-1,9.724969461E0
1.557889838E1,9.348060608E-1,-9.703571320E0,-1.481618958E0,9.860443877E0
1.558887138E1,1.425785065E0,-1.004171814E1,-2.220931549E0,1.038275027E1
1.559884538E1,1.183439026E0,-1.109986771E1,-2.350112915E0,1.140748096E1
1.560881838E1,-4.837939453E-1,-1.285362076E1,-1.782493286E0,1.298564228E1
1.561879237E1,-3.177592163E0,-1.437191345E1,-8.560697937E-1,1.474387479E1
1.562876538E1,-5.289250946E0,-1.549847076E1,-4.475692749E-1,1.638227975E1
1.563873938E1,-6.140979767E0,-1.638911865E1,-3.071612549E-1,1.750454772E1
1.564871237E1,-5.069807281E0,-1.592253891E1,5.626799011E-1,1.671965310E1
1.565868638E1,-1.928589478E0,-1.452803879E1,7.388635254E-1,1.467410262E1
1.566865938E1,1.597178650E0,-1.217822525E1,-9.526190186E-1,1.231940067E1
1.567863337E1,4.780758362E0,-1.114088242E1,-2.903661804E0,1.246620084E1
1.568860638E1,6.218668213E0,-1.153830597E1,-1.032552795E0,1.314802283E1
1.569858038E1,7.035669250E0,-1.271321274E1,-3.908372498E-1,1.453544542E1
1.570855337E1,5.773194580E0,-1.410486877E1,-7.890092468E-1,1.526104958E1
1.571852738E1,4.015699310E0,-1.443448334E1,-3.656895447E-1,1.498712377E1
1.572850038E1,5.568121033E0,-1.447909058E1,-5.209167480E-2,1.551292201E1
1.573847437E1,6.139931946E0,-1.477158234E1,-9.960287476E-1,1.602780341E1
1.574844738E1,5.797144775E0,-1.513053589E1,-1.989512787E0,1.632477151E1
1.575842138E1,5.478607178E0,-1.518846542E1,-2.070943451E0,1.627861865E1
1.576839537E1,5.123096466E0,-1.453417603E1,-1.881587219E0,1.552510099E1
1.577836838E1,5.071902924E0,-1.336750214E1,-1.095122681E0,1.433923311E1
1.578834238E1,3.945495300E0,-1.214709000E1,1.883084106E0,1.290986965E1
1.579831537E1,1.271755371E0,-1.203347626E1,6.142626343E0,1.357032685E1
1.580828938E1,-1.771116943E0,-1.158934982E1,5.929170227E-1,1.173888560E1
1.581826238E1,-2.987038422E0,-1.159578644E1,-6.524931335E0,1.363669280E1
1.582823638E1,-3.950584717E0,-1.276201126E1,-3.980672150E0,1.393993550E1
1.583820938E1,-4.496200104E0,-1.330957260E1,-2.194436646E-1,1.405022042E1
1.584818337E1,-3.386557617E0,-1.241488312E1,-2.547702026E-1,1.287101407E1
1.585815638E1,-2.335443420E0,-1.065648972E1,-8.262817383E-2,1.090971569E1
1.586813038E1,-1.698517914E0,-9.413025513E0,1.012195129E0,9.618448492E0
1.587810337E1,-5.300477600E-1,-7.818092194E0,1.677262115E0,8.013533826E0
1.588807738E1,4.096980286E-1,-6.085894318E0,1.867965546E0,6.379283455E0
1.589805038E1,8.467890930E-1,-4.117188263E0,1.645079041E0,4.513820556E0
1.590802437E1,1.103205872E0,-2.205962677E0,1.023721161E0,2.670456804E0
1.591799738E1,1.575773163E0,-9.928852844E-1,6.746470642E-1,1.980916684E0
1.592797138E1,2.412682800E0,-7.418572998E-1,8.309220886E-1,2.657408901E0
1.593794437E1,2.766546936E0,-1.316961365E0,1.210682373E0,3.294528949E0
1.594791838E1,2.664608917E0,-1.916614380E0,1.222507782E0,3.502581425E0
1.595789138E1,2.948568420E0,-1.849703522E0,6.149212646E-1,3.534626856E0
1.596786537E1,3.035687256E0,-1.417103119E0,-4.430786133E-1,3.379333813E0
1.597783838E1,2.905308380E0,-1.404229889E0,-1.352736969E0,3.498939221E0
1.598781238E1,2.519560547E0,-1.842518463E0,-2.108215942E0,3.766647594E0
1.599778637E1,1.993255005E0,-2.598296814E0,-2.910098419E0,4.380968461E0
1.600775938E1,1.684596863E0,-3.179837494E0,-3.574267273E0,5.071944362E0
1.601773338E1,1.500479736E0,-3.458258514E0,-4.228406982E0,5.664840421E0
1.602770637E1,1.096170502E0,-3.628155212E0,-5.182373199E0,6.420443286E0
1.603768038E1,7.728428650E-1,-3.732787628E0,-6.711293793E0,7.718319373E0
1.604765338E1,9.997709656E-1,-4.200564880E0,-8.431516571E0,9.472843237E0
1.605762738E1,5.445675659E-1,-5.430257721E0,-1.028735733E1,1.164534128E1
1.606760038E1,-9.711804199E-1,-7.648195496E0,-1.143651764E1,1.379246249E1
1.607757437E1,-1.308129730E0,-1.058912979E1,-1.067969147E1,1.509624731E1
1.608754738E1,-6.369255066E-1,-1.354458389E1,-9.758058014E0,1.670572127E1
1.609752138E1,2.601589966E-1,-1.548020874E1,-9.485923920E0,1.815729324E1
1.610749437E1,1.176403656E0,-1.523262360E1,-9.341773682E0,1.790769339E1
1.611746838E1,1.468895416E0,-1.210188400E1,-9.074279938E0,1.519723023E1
1.612744138E1,1.028211823E0,-8.674311676E0,-9.358688507E0,1.280179492E1
1.613741537E1,-5.298980713E-2,-6.133046265E0,-1.022239243E1,1.192117324E1
1.614738838E1,-9.383985901E-1,-4.246968384E0,-9.357790375E0,1.031918471E1
1.615736238E1,-1.906585236E0,-2.883304138E0,-4.265829163E0,5.490519871E0
1.616733537E1,2.145039368E-1,-3.266806641E0,1.899400177E0,3.784938388E0
1.617730938E1,5.022206268E0,-5.858517151E0,3.801943817E0,8.602299448E0
1.618728238E1,8.410859528E0,-9.265731812E0,4.013154602E0,1.314160393E1
1.619725637E1,1.052551208E1,-1.229932343E1,2.898123322E0,1.644563408E1
1.620722938E1,1.117216736E1,-1.615710114E1,-3.438798981E0,1.994228119E1
1.621720338E1,6.771318970E0,-2.335188950E1,-1.782867508E1,3.015001092E1
1.622717737E1,2.726430359E0,-2.605407028E1,-1.126168121E1,2.851444309E1
1.623715038E1,4.961282959E0,-1.554292831E1,1.672322388E0,1.640102470E1
1.624712438E1,4.448150024E0,-5.684279480E0,1.764530640E0,7.430386277E0
1.625709737E1,3.979025574E0,-1.848206635E0,1.906285858E0,4.783559141E0
1.626707138E1,3.967948608E0,-2.406246185E0,1.513951721E0,4.881258719E0
1.627704438E1,2.261197815E0,-5.021308136E0,1.739981689E0,5.775299753E0
1.628701838E1,8.726852417E-2,-8.355774078E0,2.718945923E0,8.787448047E0
1.629699138E1,-1.200353851E0,-1.052461395E1,3.807182922E0,1.125624227E1
1.630696537E1,-1.376986542E0,-1.137185211E1,2.868484955E0,1.180861204E1
1.631693838E1,-2.051334229E0,-1.294208679E1,8.443940735E-1,1.313082572E1
1.632691238E1,-2.873274994E0,-1.477846802E1,-8.734336853E-1,1.508050770E1
1.633688537E1,-2.946472778E0,-1.585877151E1,-1.617386627E0,1.621105411E1
1.634686046E1,-2.734663239E0,-1.528366745E1,-1.687740326E0,1.561785328E1
1.635683346E1,-1.471589813E0,-1.279688873E1,-1.267713776E0,1.294345534E1
1.636680746E1,6.935078430E-1,-1.006656647E1,-2.105820923E0,1.030782205E1
1.637678046E1,1.862576752E0,-8.467441864E0,-2.569406891E0,9.042600049E0
1.638675446E1,2.800975342E0,-7.845784607E0,-2.742896118E0,8.770705677E0
1.639672746E1,3.182681580E0,-8.238867188E0,-1.863774261E0,9.026740778E0
1.640670146E1,3.016826477E0,-9.300160217E0,-8.907975769E-1,9.817725927E0
1.641667446E1,2.658920746E0,-1.001956421E1,-1.191073151E0,1.043456668E1
1.642664846E1,1.170565796E0,-1.024948608E1,-7.244934082E-1,1.034152213E1
