"Time (s)","Acceleration x (m/s^2)","Acceleration y (m/s^2)","Acceleration z (m/s^2)","Absolute acceleration (m/s^2)"
1.817125012E-3,5.343288574E0,-1.061278061E1,-2.373164978E0,1.211667269E1
1.178912492E-2,5.630690918E0,-1.233315308E1,-1.333876190E0,1.362316302E1
2.176212496E-2,4.994513855E0,-1.412058609E1,-8.113128662E-1,1.499981162E1
3.173512500E-2,3.852688293E0,-1.518382507E1,1.672023010E-1,1.566587717E1
4.170812492E-2,2.615511017E0,-1.535626648E1,-1.257385254E-2,1.557741879E1
5.168112495E-2,7.420069885E-1,-1.591011475E1,-7.262896729E-1,1.594395880E1
6.165412499E-2,2.019300842E-1,-1.578751968E1,-3.436853027E-1,1.579255119E1
7.162712491E-2,7.379653931E-1,-1.567240906E1,1.938468933E0,1.580906893E1
8.160012495E-2,1.681004333E-1,-1.544907349E1,1.587748260E0,1.553135776E1
9.157212498E-2,1.284329224E-1,-1.456815536E1,-5.983058167E-1,1.458100187E1
1.015451250E-1,7.194039917E-1,-1.364472565E1,2.637515259E-1,1.366622278E1
1.115181249E-1,1.296454010E0,-1.327409637E1,2.440524902E0,1.355870899E1
1.214911250E-1,1.219813385E0,-1.296858170E1,1.940414886E0,1.316955830E1
1.314641250E-1,5.881269836E-1,-1.321362213E1,2.275268555E-2,1.322672374E1
1.414371249E-1,-1.172062683E0,-1.344354401E1,-2.252066803E0,1.368116995E1
1.514101250E-1,-8.690927124E-1,-1.265857635E1,-1.895807648E0,1.282922305E1
1.613831250E-1,4.734654236E-1,-1.150268005E1,-3.480262756E-1,1.151767946E1
1.713551249E-1,9.976753235E-1,-9.983339539E0,9.503736877E-1,1.007797770E1
1.813281249E-1,1.357676697E0,-8.071664886E0,1.743424530E0,8.368667107E0
1.913011250E-1,1.052760773E0,-6.949598236E0,2.274969177E0,7.387875584E0
2.012741249E-1,6.165678406E-1,-5.581593018E0,2.206411743E0,6.033455834E0
2.112471249E-1,7.090754700E-1,-4.571194153E0,1.959575043E0,5.023797205E0
2.212201250E-1,1.244212646E0,-3.717818756E0,2.437231750E0,4.616312383E0
2.311931250E-1,2.348316650E0,-2.989433441E0,3.088377686E0,4.897895478E0
2.411661249E-1,2.567311249E0,-2.296075287E0,1.922901306E0,3.944692409E0
2.511381250E-1,3.201542358E0,-1.691781921E0,1.185684357E0,3.810229250E0
2.611111250E-1,2.956352234E0,-1.087937622E0,1.315763855E0,3.413921692E0
2.710841249E-1,2.845582581E0,-6.753955078E-1,9.910890198E-1,3.088002066E0
2.810571250E-1,2.688858490E0,-5.819897461E-1,4.806504822E-1,2.792793750E0
2.910301250E-1,2.920876007E0,-4.281097412E-1,-2.616558838E-1,2.963656256E0
3.010031249E-1,3.330424347E0,-6.399192810E-1,-1.311572571E0,3.636130584E0
3.109761250E-1,2.934347992E0,-1.517095184E0,-2.470762024E0,4.125123139E0
3.209491250E-1,2.014061737E0,-2.508333893E0,-3.841162262E0,5.010260584E0
3.309211250E-1,1.469494171E0,-3.880829773E0,-5.575156403E0,6.950008760E0
3.408941249E-1,1.249451752E0,-5.590424652E0,-7.171287231E0,9.178308015E0
3.508671250E-1,1.679058380E0,-7.564519501E0,-9.278904419E0,1.208880720E1
3.608401250E-1,2.294279022E0,-9.451345825E0,-1.238090378E1,1.574415550E1
3.708131249E-1,3.686833191E0,-1.152812714E1,-1.409992905E1,1.858220798E1
3.807861250E-1,3.562890930E0,-1.397029861E1,-1.377779892E1,1.994219592E1
3.907591250E-1,1.692979431E0,-1.596385300E1,-1.258897110E1,2.040080820E1
4.007311249E-1,-7.026388550E-1,-1.592508362E1,-1.100736008E1,1.937173109E1
4.107041250E-1,-2.730921021E0,-1.524953842E1,-8.607849884E0,1.772290697E1
4.206771250E-1,-2.192041626E0,-1.326571381E1,-7.949818268E0,1.561998143E1
4.306501249E-1,-5.858816528E-1,-9.628427582E0,-7.959398346E0,1.250607441E1
4.406231249E-1,4.125421143E-1,-6.362968140E0,-8.930129700E0,1.097291078E1
4.505961250E-1,1.041085052E0,-4.756359100E0,-1.024529480E1,1.134340670E1
4.605691249E-1,1.128652954E-1,-5.864504700E0,-8.217910767E0,1.009649500E1
4.705421249E-1,-5.224136353E-1,-8.811725922E0,5.465135193E-1,8.844100110E0
4.805141250E-1,5.502557373E0,-1.047506699E1,4.370162201E0,1.261362294E1
4.904871250E-1,9.734257507E0,-1.138502472E1,3.654051361E0,1.541838670E1
5.004601249E-1,9.514813843E0,-1.321811279E1,1.431024170E-1,1.628713193E1
5.104331250E-1,6.642886047E0,-1.637220383E1,-9.158105621E0,1.990095203E1
5.204061250E-1,5.176086273E0,-1.603854767E1,-1.454525299E0,1.691574782E1
5.303791249E-1,6.853348389E0,-9.247020721E0,6.474935303E0,1.320608055E1
5.403521250E-1,7.163653107E0,-4.045337677E0,2.679128723E0,8.652191252E0
5.503251250E-1,7.263645172E0,-3.151696014E0,-2.037712555E0,8.175940399E0
5.602971249E-1,5.467230835E0,-5.132676544E0,-2.022444305E0,7.766933917E0
5.702701249E-1,1.634002075E0,-9.210945740E0,8.306227112E-1,9.391561015E0
5.802431250E-1,-2.252815247E-1,-1.209125610E1,3.149899750E0,1.249684338E1
5.902161250E-1,5.014572144E-1,-1.202135147E1,3.559448090E0,1.254727147E1
6.001891249E-1,9.487271118E-1,-1.135778137E1,3.021017761E0,1.179092147E1
6.101621250E-1,-1.043330383E-1,-1.218421280E1,1.049168243E0,1.222974574E1
6.201351250E-1,-1.694176941E0,-1.248164429E1,-2.920277252E0,1.293018557E1
6.301071249E-1,-1.553319855E0,-1.131332382E1,-3.943549347E0,1.208121186E1
6.400801250E-1,3.966751099E-2,-9.829609222E0,-3.097508698E0,1.030618024E1
6.500531250E-1,7.967930603E-1,-8.822054443E0,-2.043999481E0,9.090734715E0
6.600261249E-1,1.605261841E0,-8.345595245E0,-1.793270874E0,8.685715054E0
6.699991249E-1,2.297422485E0,-8.246052246E0,-1.945653992E0,8.778445032E0
6.799721250E-1,2.011666718E0,-8.314909058E0,-7.692503357E-1,8.589310898E0
6.899451249E-1,1.522933044E0,-8.484656067E0,-9.710307312E-1,8.674768833E0
6.999181249E-1,1.473535767E0,-8.800199890E0,-8.268804932E-1,8.960946217E0
7.098901250E-1,1.534309387E0,-8.747210083E0,-5.507048035E-1,8.897812389E0
7.198631250E-1,1.117276611E0,-8.917555847E0,-7.370672607E-1,9.017448501E0
7.298361249E-1,2.665956116E-1,-9.391320648E0,-5.890251160E-1,9.413550198E0
7.398091250E-1,-3.854484558E-1,-9.809850311E0,-3.634442139E-1,9.824145018E0
7.497821250E-1,-1.194066925E0,-9.762249298E0,1.511856079E-1,9.836166137E0
7.597547499E-1,-1.996398468E0,-9.501491547E0,4.909790039E-1,9.721368671E0
7.697277500E-1,-2.325713654E0,-8.868008881E0,9.876461792E-1,9.220952797E0
7.796997500E-1,-2.002386017E0,-8.162226562E0,3.652404785E-1,8.412187161E0
7.896727499E-1,-1.150058441E0,-7.719597015E0,-7.467970276E-1,7.840441206E0
7.996457500E-1,-2.213896179E-1,-7.764653320E0,-1.555864563E0,7.922093731E0
8.096187500E-1,2.257305908E-1,-8.169561310E0,-1.557211761E0,8.319711219E0
8.195917499E-1,7.517367554E-1,-8.398135986E0,-1.419647827E0,8.550391579E0
8.295647500E-1,1.633403320E0,-8.307274933E0,-2.265089722E0,8.764100334E0
8.395377500E-1,2.273023224E0,-8.187973022E0,-2.701881409E0,8.916821179E0
8.495107499E-1,2.488574982E0,-8.220305786E0,-2.276316376E0,8.885271459E0
8.594827499E-1,2.092498627E0,-8.453520813E0,-1.614841919E0,8.857103311E0
8.694557500E-1,1.813478851E0,-8.839118958E0,-1.013542328E0,9.079977838E0
8.794287499E-1,1.410965881E0,-8.905580750E0,-5.682183838E-1,9.034548430E0
8.894017499E-1,1.321002960E0,-8.903634796E0,-3.628454590E-1,9.008408196E0
8.993747500E-1,1.570683746E0,-8.898096313E0,-4.478686523E-1,9.046753659E0
9.093477500E-1,2.014211426E0,-8.170160065E0,-6.929090881E-1,8.443262767E0
9.193207499E-1,2.533032532E0,-7.403753815E0,-1.522483978E0,7.971811702E0
9.292927500E-1,2.473306732E0,-6.882088623E0,-3.235671387E0,7.996871847E0
9.392657500E-1,1.436113586E0,-7.215894470E0,-4.428091736E0,8.587173671E0
9.492387499E-1,-4.959187317E-1,-8.631650391E0,-2.383493500E0,8.968409286E0
9.592117500E-1,-2.568508759E0,-1.014111145E1,1.031355286E-1,1.046183615E1
9.691847500E-1,-4.144431610E0,-1.090167984E1,3.703298950E-1,1.166876518E1
9.791577499E-1,-5.093009033E0,-1.125359802E1,-5.754034424E-1,1.236581168E1
9.891307499E-1,-5.199737091E0,-1.122860001E1,-1.689835968E0,1.248896591E1
9.991037500E-1,-4.435127106E0,-1.089224945E1,-2.625091095E0,1.205000223E1
1.009075750E0,-2.971321106E0,-1.033241364E1,-3.293301544E0,1.124425879E1
1.019048750E0,-1.227148132E0,-9.883048096E0,-3.027753754E0,1.040902613E1
1.029021750E0,-1.155596924E-1,-9.453890533E0,-1.965562592E0,9.656750828E0
1.038994750E0,6.044430542E-1,-8.654403076E0,-1.597777405E0,8.821390857E0
1.048967750E0,1.149609375E0,-7.879614258E0,-2.448907471E0,8.331090587E0
1.058940750E0,9.506730652E-1,-7.516918488E0,-2.934347992E0,8.125160981E0
1.068913750E0,6.968009949E-1,-7.339836731E0,-9.517208862E-1,7.434010190E0
1.078885750E0,2.403551788E0,-8.934770050E0,-4.129911804E-1,9.261627220E0
1.088858750E0,1.873204651E0,-1.346030914E1,3.644920349E-1,1.359491347E1
1.098831750E0,-2.176174622E0,-1.926643524E1,1.951342163E0,1.948689301E1
1.108804750E0,-7.977959747E0,-2.386846527E1,5.415438538E0,2.574254165E1
1.118777750E0,-8.091274109E0,-2.411380508E1,5.695057068E0,2.606488034E1
1.128750750E0,-2.784060516E0,-2.145563278E1,3.639232178E0,2.193944352E1
1.138723750E0,1.712139587E0,-2.117960678E1,1.007405090E0,2.127256520E1
1.148696750E0,4.653972015E0,-2.153451874E1,-1.247206421E0,2.206695440E1
1.158668750E0,6.758445740E0,-2.026979874E1,-2.935395813E0,2.156751906E1
1.168641750E0,6.995253296E0,-1.902378983E1,-4.780458984E0,2.082524756E1
1.178614750E0,8.440048828E0,-1.979768051E1,-4.812492371E0,2.205317802E1
1.188587750E0,1.102906494E1,-2.009481262E1,-5.787265320E0,2.364178943E1
1.198560750E0,1.072519684E1,-1.810425201E1,-5.626200256E0,2.178182540E1
1.208533750E0,7.431296539E0,-1.404813675E1,-9.752220154E-1,1.592248009E1
1.218506750E0,2.714155884E0,-9.874066772E0,4.152365112E0,1.105015714E1
1.228478750E0,-5.149291992E-1,-8.775201874E0,1.478774872E0,8.913814847E0
1.238451750E0,-3.209326172E0,-8.507558441E0,-2.016307068E0,9.313636202E0
1.248424750E0,-4.055217133E0,-8.913514252E0,-4.701273651E0,1.086266525E1
1.258397750E0,-3.405867462E0,-8.694968719E0,-3.009791107E0,9.811282114E0
1.268370750E0,-2.080673218E0,-7.880811768E0,5.504054260E-1,8.169414991E0
1.278343750E0,-7.674540710E-1,-6.017486572E0,2.070195007E0,6.409745531E0
1.288316750E0,-1.586700439E-2,-4.306544495E0,3.328777771E0,5.443100100E0
1.298289750E0,1.090182953E0,-2.517315216E0,3.314557343E0,4.302518465E0
1.308261750E0,1.167721710E0,-2.007924500E0,3.841611328E0,4.489244077E0
1.318234750E0,2.119592285E-1,-2.724484406E0,4.541705475E0,5.300455698E0
1.328207750E0,3.475772095E-1,-3.479514313E0,4.551734619E0,5.739870888E0
1.338180750E0,1.385069733E0,-2.547552338E0,4.114194489E0,5.033392233E0
1.348153750E0,2.151026917E0,-2.144290924E0,3.382965088E0,4.546356030E0
1.358126750E0,3.304378510E0,-1.710343323E0,3.028502197E0,4.797501139E0
1.368099750E0,4.832251282E0,-5.131329346E-1,2.509830780E0,5.469296884E0
1.378071750E0,5.084776154E0,9.415420532E-1,1.637295227E0,5.424222122E0
1.388044750E0,4.409081268E0,1.516346741E0,2.912942505E-1,4.671633270E0
1.398017750E0,3.217259674E0,9.521699524E-1,-1.038690033E0,3.512301868E0
1.407990750E0,1.687890015E0,-2.378553772E-1,-2.085463257E0,2.693455936E0
1.417963750E0,4.956193542E-1,-1.443747711E0,-3.114872589E0,3.468786134E0
1.427936750E0,-2.559677124E-1,-2.530787201E0,-4.725373535E0,5.366522000E0
1.437909750E0,5.254074097E-1,-4.237537994E0,-7.792495422E0,8.885705718E0
1.447881750E0,2.631527710E0,-7.033573608E0,-1.347632584E1,1.542749020E1
1.457854750E0,4.036805420E0,-1.113594269E1,-1.719938370E1,2.088357769E1
1.467827750E0,5.017865295E0,-1.500539612E1,-1.586401062E1,2.240552873E1
1.477800750E0,5.078339539E0,-1.747466125E1,-1.237012619E1,2.200393920E1
1.487773750E0,3.343447266E0,-1.755504410E1,-9.162446594E0,2.008254567E1
1.497746750E0,2.340682526E0,-1.566836746E1,-7.773484955E0,1.764663146E1
1.507719750E0,2.165696411E0,-1.274030640E1,-6.363117828E0,1.440468384E1
1.517691750E0,3.476221161E0,-1.063523392E1,-6.180198212E0,1.278229885E1
1.527664750E0,7.056326294E0,-1.099194214E1,-1.004770569E1,1.647940904E1
1.537637750E0,1.160192368E1,-1.603630234E1,-1.494043121E1,2.479887317E1
1.547610750E0,1.116168915E1,-2.557027634E1,-7.991581421E0,2.902219341E1
1.557583750E0,8.082891541E0,-3.211975662E1,-3.365152130E0,3.329168290E1
1.567556750E0,2.884202271E0,-2.707045670E1,-1.608704681E0,2.727116021E1
1.577529750E0,-6.385271759E0,-7.041656799E0,1.732347565E1,1.976004642E1
1.587501750E0,-1.695973206E-1,6.750811615E0,1.580623077E1,1.718834349E1
1.597474750E0,7.512876892E0,1.045036835E1,2.506837006E0,1.311250356E1
1.607447750E0,8.140521698E0,8.946745148E0,-5.384902039E0,1.324044985E1
1.617420750E0,2.865042114E0,7.277865601E-1,-1.122066650E0,3.161830666E0
1.627393750E0,4.221221924E-1,-9.463620300E0,7.039112091E0,1.180200811E1
1.637366750E0,2.130968628E0,-1.258178604E1,1.249361938E1,1.785869235E1
1.647339750E0,4.011807404E0,-1.454300766E1,7.445516968E0,1.682347745E1
1.657311750E0,2.833457794E0,-1.819511307E1,8.054750061E-1,1.843202139E1
1.667284750E0,-4.132456512E0,-2.454880051E1,-9.892179108E0,2.678760927E1
1.677257750E0,-8.644673309E0,-3.125350800E1,-6.681505737E0,3.310822643E1
1.687230750E0,-3.031645660E0,-2.388792480E1,-2.275867310E0,2.418684351E1
1.697203750E0,7.521858215E-1,-1.217807556E1,-7.415579224E-1,1.222379712E1
1.707176750E0,1.646725616E0,-8.045169983E0,1.394649811E0,8.329556615E0
1.717149750E0,1.434017944E0,-7.613767090E0,1.374142456E0,7.868552869E0
1.727122750E0,4.418811035E-1,-8.181686096E0,-4.703219604E-1,8.207097479E0
1.737094750E0,3.611988831E-1,-7.774383087E0,-7.090754700E-1,7.815003841E0
1.747067750E0,7.328759766E-1,-7.356302490E0,6.156697083E-1,7.418311312E0
1.757041000E0,1.110839996E0,-7.451953583E0,4.822970581E-1,7.549714442E0
1.767014000E0,1.699715424E0,-7.989485779E0,-1.682501221E0,8.339767736E0
1.776987000E0,2.570005646E0,-8.218659210E0,-1.990560608E0,8.838190978E0
1.786960000E0,2.599494324E0,-8.373287659E0,-1.242117004E0,8.855064743E0
1.796933000E0,1.804946594E0,-8.525820465E0,-1.516945496E0,8.845822203E0
1.806905000E0,1.714235229E0,-8.547675018E0,-2.229314117E0,8.998399417E0
1.816878000E0,2.903961182E0,-8.114026794E0,-3.244652710E0,9.208593409E0
1.826851000E0,2.997366943E0,-7.852370911E0,-3.495081940E0,9.102721312E0
1.836824000E0,2.969075775E0,-7.465126190E0,-2.558180237E0,8.431358498E0
1.846797000E0,2.621648254E0,-6.771169281E0,-1.463656311E0,7.407027933E0
1.856770000E0,2.397863617E0,-6.174510040E0,-1.075812836E0,6.710566103E0
1.866742000E0,2.478994904E0,-6.003415833E0,-1.582658844E0,6.685149692E0
1.876715000E0,2.588716736E0,-6.397396545E0,-2.091151428E0,7.211175438E0
1.886688000E0,2.054178314E0,-6.940018158E0,-1.629361725E0,7.418781585E0
1.896661000E0,1.441652069E0,-7.734266510E0,-4.893324280E-1,7.882682625E0
1.906634000E0,8.099656677E-1,-8.641529846E0,2.965333557E-1,8.684469730E0
1.916607000E0,2.427951050E-1,-9.222322083E0,-5.658233643E-2,9.225691064E0
1.926580000E0,3.353027344E-1,-1.001657043E1,-1.053958282E0,1.007744706E1
1.936552000E0,6.273454285E-1,-1.078926361E1,-2.704875183E0,1.114083127E1
1.946525000E0,9.045689392E-1,-1.088536377E1,-4.404291229E0,1.177740084E1
1.956498000E0,6.828799438E-1,-1.085976700E1,-5.187612305E0,1.205455041E1
1.966471000E0,-3.344046021E-1,-1.111259125E1,-5.130580902E0,1.224436079E1
1.976444000E0,-1.896406403E0,-1.153890472E1,-3.667223969E0,1.225525239E1
1.986417000E0,-3.015778656E0,-1.190085205E1,-1.465901642E0,1.236422533E1
1.996390000E0,-3.701802063E0,-1.220576797E1,-3.394940186E-1,1.275928550E1
2.006362000E0,-3.810027008E0,-1.241368561E1,-2.321672058E-1,1.298729371E1
2.016335000E0,-3.674259338E0,-1.267399429E1,-1.197509766E-2,1.319584997E1
2.026308000E0,-3.556753693E0,-1.331556015E1,-3.121009827E-1,1.378593653E1
2.036281000E0,-3.329825592E0,-1.371627686E1,-4.884342957E-1,1.412312137E1
2.046254000E0,-2.688708801E0,-1.382525024E1,-3.523672485E-1,1.408867850E1
2.056227000E0,-1.436712341E0,-1.425410843E1,-8.476872253E-1,1.435138750E1
2.066200000E0,6.743476868E-1,-1.414139282E1,-2.756517792E0,1.442331883E1
2.076172000E0,3.038381653E0,-1.200982544E1,-4.832700348E0,1.329746829E1
2.086145000E0,5.086273041E0,-1.022164398E1,-4.611610107E0,1.231337187E1
2.096118000E0,7.107519836E0,-9.750423889E0,-2.808160400E0,1.238843691E1
2.106091000E0,7.891140289E0,-1.059287201E1,-1.743574219E0,1.332362877E1
2.116064000E0,6.487209778E0,-1.309491898E1,-1.010398865E0,1.464860743E1
2.126037000E0,5.962401123E0,-1.474778183E1,8.966354370E-2,1.590771309E1
2.136010000E0,4.887486420E0,-1.569800583E1,7.458988953E-1,1.645816745E1
2.145982000E0,1.726360016E0,-1.662652496E1,6.997947693E-1,1.673055181E1
2.155955000E0,5.254074097E-2,-1.666993469E1,2.564167786E-1,1.667198947E1
2.165928000E0,1.100511475E0,-1.647728531E1,-4.213737488E-1,1.651937083E1
2.175901000E0,2.864143982E0,-1.629212036E1,-1.177750854E0,1.658383561E1
2.185874000E0,3.072810059E0,-1.551733154E1,-1.426683197E0,1.588285758E1
2.195847000E0,2.381996613E0,-1.464958603E1,-8.741821289E-1,1.486769898E1
2.205820000E0,2.130519562E0,-1.339279953E1,6.944059753E-1,1.357896876E1
2.215792000E0,1.779948578E0,-1.229573090E1,3.533402252E0,1.291658417E1
2.225765000E0,9.536668396E-1,-1.135314102E1,1.914518738E0,1.155286430E1
2.235738000E0,-1.505868530E-1,-1.135209320E1,-2.922223206E0,1.172314313E1
2.245711000E0,-8.385562134E-1,-1.156839340E1,-2.980152740E0,1.197548382E1
2.255684000E0,-1.763333130E0,-1.157333313E1,-9.680369568E-1,1.174684975E1
2.265657000E0,-1.686991882E0,-1.085722229E1,-2.769241333E-2,1.098753768E1
2.275630000E0,-7.893086243E-1,-9.891430664E0,1.534309387E-1,9.924059136E0
2.285602000E0,-2.185455322E-2,-8.319549408E0,9.342073059E-1,8.371864981E0
2.295575000E0,-1.170565796E-1,-6.849157104E0,1.681902466E0,7.053612634E0
2.305548000E0,-1.068777466E-1,-5.284011841E0,1.726509705E0,5.559949617E0
2.315521000E0,5.098397827E-1,-3.445834351E0,1.894460449E0,3.965184910E0
2.325494000E0,1.390308838E0,-2.286944275E0,2.199526062E0,3.464244171E0
2.335467000E0,1.915117493E0,-1.356479187E0,1.312470703E0,2.688919884E0
2.345440000E0,2.210752716E0,-1.423689423E0,8.984317017E-1,2.778758476E0
2.355412000E0,1.943708038E0,-1.692680054E0,1.531016235E0,2.997862141E0
2.365385000E0,1.637145538E0,-1.679956512E0,1.525926819E0,2.798383829E0
2.375358000E0,1.713187408E0,-1.550026703E0,9.291178894E-1,2.490151387E0
2.385331000E0,1.755100250E0,-1.184786224E0,5.727090454E-1,2.193647861E0
2.395304000E0,1.898502045E0,-1.322200470E0,-5.254074097E-2,2.314148791E0
2.405277000E0,2.127974854E0,-1.924697571E0,-1.098266144E0,3.072283554E0
2.415249000E0,1.848056946E0,-2.266436920E0,-2.420616302E0,3.796239465E0
2.425222000E0,1.105301514E0,-2.370320892E0,-3.807482300E0,4.619202749E0
2.435195000E0,6.303392029E-1,-2.693349152E0,-5.173092499E0,5.866203471E0
2.445168000E0,7.523355103E-1,-3.072211304E0,-6.960375824E0,7.645346469E0
2.455141000E0,7.155120850E-2,-4.375700684E0,-9.053173828E0,1.005543795E1
2.465114000E0,1.166075134E-1,-7.238048401E0,-1.101035385E1,1.317690532E1
2.475087000E0,7.390132141E-1,-1.096350128E1,-1.067774551E1,1.532183899E1
2.485059000E0,1.575473785E0,-1.517155060E1,-1.098834961E1,1.879898647E1
2.495032000E0,2.511926422E0,-1.956057358E1,-1.179532150E1,2.297945653E1
2.505005000E0,2.778372345E0,-2.061722626E1,-1.137065460E1,2.370825083E1
2.514978000E0,2.310295715E0,-1.644360535E1,-1.036744080E1,1.957583847E1
2.524951000E0,2.632575531E0,-1.091754684E1,-8.664432220E0,1.418434590E1
2.534924000E0,2.941832428E0,-6.162085876E0,-7.552843781E0,1.018190206E1
2.544897000E0,2.783012695E0,-2.015408936E0,-6.818321228E0,7.635216906E0
2.554869000E0,1.229992218E0,1.118174744E0,-4.696034546E0,4.981559602E0
2.564842000E0,-1.406924286E0,1.448687439E0,2.319576416E0,3.075478173E0
2.574815000E0,1.673070831E0,-1.197210388E0,7.956105194E0,8.217790979E0
2.584788000E0,6.045029297E0,-5.282215576E0,7.679181061E0,1.110918549E1
2.594761000E0,7.570656738E0,-9.251361694E0,5.687422943E0,1.323817647E1
2.604734000E0,7.814948730E0,-1.311497726E1,3.614982605E-1,1.527110780E1
2.614706000E0,6.608158264E0,-2.756218414E1,-2.908212341E1,4.060925575E1
2.624679000E0,3.012934570E0,-3.703852798E1,-1.294642776E1,3.935149707E1
2.634652000E0,5.669609985E0,-2.769929901E1,1.408645706E1,3.158835095E1
2.644625000E0,5.635930023E0,-1.239527390E1,7.514373779E0,1.555224535E1
2.654598000E0,5.418132935E0,-4.171974335E0,-1.341809692E0,6.968643168E0
2.664571000E0,3.828289032E0,-1.967508545E0,-1.109492798E0,4.444981558E0
2.674544000E0,1.515149231E0,-4.761598206E0,3.558849335E0,6.134647769E0
2.684516000E0,1.636097717E-1,-9.046288147E0,6.278244324E0,1.101264951E1
2.694489000E0,-8.164022827E-1,-1.302022430E1,5.648054810E0,1.421595149E1
2.704462000E0,-3.180885315E0,-1.739757156E1,4.358037415E0,1.821499431E1
2.714435000E0,-5.326972504E0,-1.965757187E1,2.802023163E0,2.055840708E1
2.724408000E0,-4.683460693E0,-1.537871979E1,1.053359528E0,1.611053670E1
2.734381000E0,-2.242337036E0,-1.067370392E1,-3.667373657E-2,1.090675826E1
2.744353000E0,1.746867371E-1,-8.435707855E0,-5.959107971E-1,8.458533688E0
2.754326000E0,1.209035797E0,-7.692503357E0,-8.262817383E-1,7.830652397E0
2.764298917E0,2.221380615E0,-7.127428436E0,-2.460583191E0,7.860613054E0
2.774271917E0,4.300856323E0,-6.354435883E0,-5.158123627E0,9.245672493E0
2.784244917E0,5.235512695E0,-6.614445190E0,-4.115092621E0,9.385918476E0
2.794217917E0,5.225782928E0,-6.961723022E0,-1.046174469E0,8.767489702E0
2.804190917E0,4.554429016E0,-7.660020905E0,-3.105292511E0,9.437244593E0
2.814162917E0,3.175646210E0,-8.833131409E0,-4.373455353E0,1.035548411E1
2.824135917E0,1.088536377E0,-9.242829437E0,-3.329975281E0,9.884510247E0
2.834108917E0,-2.474354553E-1,-8.875343628E0,-1.476080475E0,9.000653442E0
2.844081917E0,-4.733157349E-1,-7.557184753E0,1.875599670E-1,7.574315013E0
2.854054917E0,1.132095795E0,-7.835156708E0,-2.573149109E-1,7.920702777E0
2.864027917E0,1.368753662E0,-7.654183044E0,-1.464704132E0,7.912355077E0
2.873999917E0,2.134411469E0,-6.797364807E0,-1.149459686E0,7.216726281E0
2.883972917E0,2.116748199E0,-6.491101685E0,-1.134939880E0,6.921207449E0
2.893945917E0,1.597478027E0,-6.710395660E0,-1.049916687E0,6.977368488E0
2.903918917E0,1.116827545E0,-7.326963501E0,-5.273533630E-1,7.430329702E0
2.913891917E0,7.605683899E-1,-7.923922119E0,1.023870850E-1,7.960997999E0
2.923864917E0,4.833448792E-1,-8.612939301E0,5.957611084E-2,8.626696644E0
2.933837917E0,1.604663086E-1,-9.623038788E0,-6.354286194E-1,9.645330190E0
2.943809917E0,-1.125659180E-1,-1.041459274E1,-1.674268341E0,1.054891405E1
2.953782917E0,-5.538482666E-2,-1.062206131E1,-2.786455536E0,1.098160227E1
2.963755917E0,4.840933228E-1,-1.027089157E1,-3.688330078E0,1.092379690E1
2.973728917E0,1.140328674E0,-9.893975372E0,-3.935316467E0,1.070877275E1
2.983701917E0,1.471140747E0,-9.675878906E0,-3.119962006E0,1.027234397E1
2.993674917E0,1.341360626E0,-9.503138123E0,-1.642085266E0,9.736802685E0
3.003646917E0,3.805087280E-1,-9.865684204E0,-5.978567505E-1,9.891104306E0
3.013619917E0,-1.313518524E0,-1.033346146E1,-4.423301697E-1,1.042599696E1
3.023592917E0,-2.815794525E0,-1.101304825E1,-8.803193665E-1,1.140135486E1
3.033565917E0,-3.713777161E0,-1.142154877E1,-1.729952545E0,1.213411113E1
3.043538917E0,-4.088448029E0,-1.130134872E1,-2.279609528E0,1.223243679E1
3.053511917E0,-3.653003540E0,-1.096529755E1,-1.957329712E0,1.172234297E1
3.063484917E0,-2.284698944E0,-1.065199905E1,-2.225272522E0,1.111920730E1
3.073456917E0,-7.879614258E-1,-1.006641678E1,-2.760559387E0,1.046777522E1
3.083429917E0,4.498146057E-1,-9.453591156E0,-3.129691772E0,9.968334340E0
3.093402917E0,1.201401672E0,-9.505084076E0,-3.663332062E0,1.025719216E1
3.103375917E0,1.537752228E0,-1.063912582E1,-3.744912415E0,1.138332329E1
3.113348917E0,1.313069458E0,-1.211685287E1,-3.870950317E0,1.278774927E1
3.123321917E0,1.097218323E-1,-1.265064285E1,-3.273392944E0,1.306774291E1
3.133293917E0,-1.350641327E0,-1.325837906E1,-6.629713440E-1,1.334347699E1
3.143266917E0,-1.494641876E0,-1.567315750E1,-6.676116943E-2,1.574440464E1
3.153239917E0,-1.083596649E0,-1.708771591E1,1.682501221E-1,1.712286556E1
3.163212917E0,-1.010997620E0,-1.772404266E1,1.596280518E0,1.782447520E1
3.173185917E0,-3.619473267E-1,-1.778960632E1,2.887495422E0,1.802605694E1
3.183158917E0,1.510808258E0,-1.754935593E1,2.919528809E0,1.785458158E1
3.193131917E0,3.183879089E0,-1.747720596E1,1.638642426E0,1.784026242E1
3.203103917E0,3.887416077E0,-1.733664825E1,-3.990701294E-1,1.777162439E1
3.213076917E0,4.449048157E0,-1.738275238E1,-2.061513062E0,1.806111696E1
3.223049917E0,5.176685028E0,-1.716600311E1,-3.052302704E0,1.818753096E1
3.233022917E0,6.749614105E0,-1.633508102E1,-3.530558167E0,1.802378993E1
3.242995917E0,7.682923279E0,-1.519550079E1,-3.412004700E0,1.736583803E1
3.252968917E0,6.890770569E0,-1.381372421E1,-1.651815033E0,1.552514697E1
3.262940917E0,4.976700897E0,-1.321122711E1,6.674021301E0,1.561558945E1
3.272913917E0,2.726130981E0,-1.032028885E1,6.015091553E0,1.225240705E1
3.282886917E0,6.583309937E-1,-8.498128052E0,-5.625302124E-1,8.542132071E0
3.292859917E0,-7.967930603E-1,-9.163195038E0,-2.768043823E0,9.605263614E0
3.302832917E0,-1.920206909E0,-1.014829651E1,-2.728526001E0,1.068269492E1
3.312805917E0,-3.075504456E0,-1.067984116E1,-1.604663086E0,1.122909963E1
3.322778917E0,-3.156785431E0,-1.072295151E1,-2.948867798E-1,1.118185769E1
3.332750917E0,-1.491498413E0,-9.688452759E0,1.437161407E0,9.907376913E0
3.342723917E0,-5.965095520E-1,-7.955207062E0,2.380050659E0,8.325009560E0
3.352696917E0,3.667373657E-1,-5.276228027E0,2.694696350E0,5.935862777E0
3.362669917E0,7.358697510E-1,-3.657943268E0,2.973865814E0,4.771365750E0
3.372642917E0,1.184486847E0,-2.305505676E0,2.598745880E0,3.670401295E0
3.382615917E0,2.295775909E0,-1.507964172E0,2.172432404E0,3.502000217E0
3.392587917E0,2.795586548E0,-1.278491364E0,1.588347015E0,3.460157591E0
3.402560917E0,2.290536804E0,-1.047371979E0,1.435664520E0,2.899082532E0
3.412533917E0,2.251168671E0,-9.608518982E-1,1.248852997E0,2.747841073E0
3.422506917E0,2.442620544E0,-1.013392639E0,1.165626068E0,2.889990293E0
3.432479917E0,2.645598450E0,-9.689350891E-1,7.135661316E-1,2.906407230E0
3.442452917E0,2.728675690E0,-1.264869690E0,-1.525328064E-1,3.011450250E0
3.452424917E0,2.101929016E0,-1.797611847E0,-1.015937347E0,2.946462733E0
3.462397917E0,1.166823578E0,-2.286495209E0,-2.075284424E0,3.300960927E0
3.472370917E0,3.629951477E-1,-2.615061951E0,-3.359913025E0,4.273093729E0
3.482343917E0,7.764353943E-1,-3.090024261E0,-5.050048370E0,5.971104622E0
3.492316917E0,2.043101349E0,-4.407883759E0,-8.082891541E0,9.430632959E0
3.502289917E0,1.837129669E0,-7.003785553E0,-1.153306686E1,1.361762420E1
3.512262917E0,4.424798584E-1,-1.027343628E1,-1.361059662E1,1.705835929E1
3.522234917E0,1.422342224E0,-1.446951050E1,-1.367690872E1,1.996115286E1
3.532207917E0,2.265089722E0,-1.749786301E1,-1.273641449E1,2.176056284E1
3.542180917E0,2.096839600E0,-1.787897049E1,-1.175340866E1,2.149876595E1
3.552153917E0,1.991758118E0,-1.496557892E1,-1.013826736E1,1.818571192E1
3.562126917E0,3.269351349E0,-1.138472534E1,-7.664361877E0,1.410826256E1
3.572099917E0,3.892954559E0,-8.602760468E0,-5.685476990E0,1.102212463E1
3.582071917E0,3.534300385E0,-6.089337158E0,-4.584067383E0,8.401486773E0
3.592044917E0,2.976410522E0,-3.777245178E0,-5.032534790E0,6.960819431E0
3.602017917E0,2.285447388E0,-2.454595642E0,-6.086642761E0,6.949498517E0
3.611990917E0,-2.704875183E-1,-3.357817383E0,-4.174069977E0,5.363856937E0
3.621963917E0,-1.218765564E0,-5.835165710E0,-1.047821045E0,6.052476957E0
3.631936917E0,1.909429321E0,-7.661667480E0,1.588646393E0,8.054245233E0
3.641909917E0,5.726042633E0,-9.806407471E0,2.077529755E0,1.154423326E1
3.651881917E0,6.429130554E0,-1.224573486E1,-3.023712158E-2,1.383085884E1
3.661854917E0,4.279301147E0,-1.480122070E1,-3.817361755E0,1.587327324E1
3.671827917E0,1.244212646E0,-1.953527618E1,-1.147932861E1,2.269251123E1
3.681800917E0,2.693498840E0,-2.134830597E1,-6.209537201E0,2.239561243E1
3.691773917E0,5.816604309E0,-1.617895569E1,3.500021667E0,1.754541662E1
3.701746917E0,5.771997070E0,-1.072325089E1,3.127596130E0,1.257322223E1
3.711718917E0,5.794899445E0,-7.064110107E0,7.402107239E-1,9.166810956E0
3.721691917E0,4.264332275E0,-5.300477600E0,2.424358521E0,7.221987731E0
3.731664917E0,2.192939758E0,-6.450985107E0,3.419638824E0,7.623524338E0
3.741637917E0,5.658233643E-1,-9.275311890E0,3.645070038E0,9.981888715E0
3.751610917E0,-1.508862305E-1,-1.190713898E1,3.622766418E0,1.244697400E1
3.761584042E0,-6.806346130E-1,-1.312036606E1,3.345542908E0,1.355728315E1
3.771556042E0,-1.832938385E0,-1.419692734E1,2.159559174E0,1.447674358E1
3.781529042E0,-2.779569855E0,-1.531345551E1,1.697470093E-1,1.556459900E1
3.791502042E0,-2.928360443E0,-1.486932907E1,-1.946402435E0,1.527942160E1
3.801475042E0,-1.267564087E0,-1.203452408E1,-3.493734741E0,1.259534322E1
3.811448042E0,6.589297485E-1,-9.958790588E0,-2.224673767E0,1.022550105E1
3.821421042E0,1.779499512E0,-8.761280823E0,-5.935157776E-1,8.959850509E0
3.831394042E0,2.164349213E0,-7.780670013E0,-7.204518127E-1,8.108161579E0
3.841366042E0,2.678080902E0,-7.289092255E0,-1.536854095E0,7.916116707E0
3.851339042E0,3.249891815E0,-7.459587708E0,-1.490151215E0,8.272109539E0
3.861312042E0,3.885769501E0,-7.774682465E0,5.957611084E-2,8.691860638E0
3.871285042E0,3.968247986E0,-8.198600922E0,9.389973450E-1,9.156733324E0
3.881258042E0,2.675087128E0,-8.708889771E0,-1.221909027E0,9.192057106E0
3.891231042E0,1.008901978E0,-8.896300049E0,-2.078577576E0,9.191437455E0
3.901203042E0,1.504371643E-1,-8.740773468E0,-1.864223328E0,8.938628573E0
3.911176042E0,-2.814147949E-1,-8.851543121E0,-1.613943787E0,9.001878941E0
3.921149042E0,1.561253357E-1,-8.831035767E0,-1.885329437E0,9.031391638E0
3.931122042E0,6.851252747E-1,-8.425678711E0,-2.104324036E0,8.711465894E0
3.941095042E0,1.078507233E0,-8.216563568E0,-1.752106476E0,8.470240364E0
3.951068042E0,1.387315063E0,-7.931705933E0,-1.251996460E0,8.148870917E0
3.961041042E0,1.327888641E0,-7.731123047E0,-6.806346130E-1,7.873805642E0
3.971013042E0,1.427132263E0,-7.666158142E0,-2.921923828E-1,7.803336693E0
3.980986042E0,1.863774261E0,-7.738008728E0,-1.718426514E-1,7.961153401E0
3.990959042E0,2.356848907E0,-7.915988617E0,-2.601589966E-1,8.263491711E0
4.000932042E0,2.425556030E0,-8.266709290E0,-5.716612244E-1,8.634153177E0
4.010905042E0,1.645079041E0,-8.579259338E0,-1.020577698E0,8.794973262E0
4.020878042E0,6.926097107E-1,-8.904083862E0,-1.268462219E0,9.020610514E0
4.030850042E0,-1.308279419E-1,-9.381141815E0,-1.964664459E0,9.585553930E0
4.040823042E0,-5.294490051E-1,-9.738748169E0,-3.120411072E0,1.024014147E1
4.050796042E0,-3.755690002E-1,-9.677675171E0,-4.054618378E0,1.049944660E1
4.060769042E0,2.499801636E-1,-9.515113220E0,-4.447251892E0,1.050608962E1
4.070742042E0,7.674540710E-1,-9.485025787E0,-4.114044800E0,1.036725926E1
4.080715042E0,5.924679565E-1,-9.773326263E0,-2.852767639E0,1.019839241E1
4.090688042E0,-1.407073975E-1,-1.065289719E1,-1.521735535E0,1.076195596E1
4.100660042E0,-1.148860931E0,-1.162572418E1,-7.785310364E-1,1.170826438E1
4.110633042E0,-2.560275879E0,-1.183439026E1,-1.101110229E0,1.215813510E1
4.120606042E0,-3.218008118E0,-1.165296753E1,-2.310445404E0,1.230793998E1
4.130579042E0,-3.560346222E0,-1.136257141E1,-3.321293335E0,1.236183982E1
4.140552042E0,-3.552113342E0,-1.084360062E1,-3.723806305E0,1.200282954E1
4.150525042E0,-2.466271362E0,-1.040650955E1,-3.061284027E0,1.112427056E1
4.160497042E0,-9.785151672E-1,-1.030681686E1,-1.778601379E0,1.050482692E1
4.170470042E0,2.670446777E-1,-1.062490540E1,-1.252744904E0,1.070183617E1
4.180443042E0,1.464704132E0,-1.140822647E1,-3.047812042E0,1.189882968E1
4.190416042E0,1.261277161E0,-1.226519440E1,-5.105882263E0,1.334525561E1
4.200389042E0,6.173162842E-1,-1.205398361E1,-3.734134827E0,1.263421399E1
4.210362042E0,3.382965088E-1,-1.370430176E1,-1.372645569E0,1.377702751E1
4.220334042E0,-3.812571716E-1,-1.754726028E1,5.632786560E-1,1.756043802E1
4.230307042E0,-5.316943359E-1,-1.924458069E1,2.613415375E0,1.942849775E1
4.240280042E0,6.614744568E-1,-1.902872955E1,3.748804321E0,1.940576282E1
4.250253042E0,2.358944550E0,-1.832863541E1,4.079915771E0,1.892483046E1
4.260226042E0,3.348836060E0,-1.731449432E1,3.581003265E0,1.799527719E1
4.270199042E0,3.751648407E0,-1.682246750E1,1.823957062E0,1.733196751E1
4.280172042E0,4.905000000E0,-1.726898895E1,-1.055305481E0,1.798306632E1
4.290144042E0,6.766528931E0,-1.798135757E1,-3.599265289E0,1.954660698E1
4.300117042E0,8.177943878E0,-1.744801666E1,-4.611011353E0,1.981346707E1
4.310090042E0,8.615783386E0,-1.582973190E1,-3.072061615E0,1.828249704E1
4.320063042E0,7.334747314E0,-1.407642792E1,-1.269210663E0,1.592341787E1
4.330036042E0,5.612578583E0,-1.290017395E1,6.036646729E0,1.530871092E1
4.340009042E0,2.981350250E0,-1.166464325E1,6.046376495E0,1.347260258E1
4.349981042E0,9.147477722E-1,-1.007958939E1,-5.278024292E-1,1.013476497E1
4.359954042E0,-1.298549652E0,-1.073777069E1,-3.441792755E0,1.135041356E1
4.369927042E0,-2.531086578E0,-1.126332779E1,-3.034489746E0,1.193637634E1
4.379900042E0,-3.304228821E0,-1.109388016E1,-1.459764404E0,1.166717691E1
4.389873042E0,-2.414479065E0,-1.084988754E1,-9.318122864E-1,1.115428362E1
4.399846042E0,-6.159690857E-1,-9.863289185E0,8.517288208E-1,9.919139753E0
4.409819042E0,1.651066589E-1,-8.411158905E0,2.644700317E0,8.818690045E0
4.419791042E0,-1.556762695E-2,-6.192622375E0,2.878214722E0,6.828831102E0
4.429764042E0,1.683998108E-1,-4.247567139E0,3.400628357E0,5.443754065E0
4.439737042E0,1.424886932E0,-2.496658173E0,2.824626160E0,4.030151082E0
4.449710042E0,1.765428772E0,-1.069825287E0,1.731748810E0,2.694479325E0
4.459683042E0,1.944157104E0,-4.182302856E-1,1.879491577E0,2.736266070E0
4.469656042E0,2.226170654E0,-3.513194275E-1,2.084116058E0,3.069658103E0
4.479628042E0,2.272274780E0,-7.755372620E-1,1.579515381E0,2.873944947E0
4.489601042E0,2.106719055E0,-1.065933380E0,1.175505524E0,2.637478414E0
4.499574042E0,2.282603302E0,-9.575587463E-1,5.381309509E-1,2.533136693E0
4.509547042E0,2.006128235E0,-1.240470428E0,-1.896556091E-1,2.366281181E0
4.519520042E0,1.199006653E0,-1.531315613E0,-8.755293274E-1,2.132861004E0
4.529493042E0,8.303233337E-1,-1.326990509E0,-1.767823792E0,2.361258480E0
4.539466042E0,3.135978699E-1,-1.231938171E0,-2.624043274E0,2.915753485E0
4.549438042E0,-6.876699829E-1,-1.471440125E0,-3.733386383E0,4.071387961E0
4.559411042E0,-7.852670288E-1,-2.076631622E0,-5.085524597E0,5.549018258E0
4.569384042E0,3.989204407E-1,-2.894680481E0,-6.850354614E0,7.447527841E0
4.579357042E0,1.273401947E0,-4.325554962E0,-8.902586975E0,9.979380397E0
4.589330042E0,9.761201477E-1,-7.268734589E0,-1.057475967E1,1.286906583E1
4.599303042E0,1.751208344E0,-1.242625946E1,-1.248359024E1,1.770081015E1
4.609275042E0,3.894301758E0,-1.850227432E1,-1.311946793E1,2.301347822E1
4.619248042E0,5.395529938E0,-2.331835922E1,-1.249631378E1,2.700028663E1
4.629221042E0,4.398153992E0,-2.263338364E1,-1.134116592E1,2.569505513E1
4.639194042E0,3.076103210E0,-1.683264633E1,-1.031265472E1,1.997876976E1
4.649167042E0,3.948638763E0,-1.108474915E1,-7.893984375E0,1.416962953E1
4.659140042E0,4.746928711E0,-7.110363922E0,-6.901099091E0,1.098707313E1
4.669112042E0,4.311633911E0,-5.063220978E0,-7.185956726E0,9.791035069E0
4.679085042E0,2.364183655E0,-6.346352692E0,-3.705843658E0,7.720028113E0
4.689058042E0,2.418670349E0,-9.965825958E0,9.741741943E-1,1.030129451E1
4.699031042E0,3.969295807E0,-1.085901855E1,2.562970276E0,1.184239882E1
4.709004042E0,3.360362091E0,-1.017808456E1,2.523003387E0,1.101140249E1
4.718977042E0,1.539548492E0,-9.916129303E0,2.421963501E-1,1.003785281E1
4.728949042E0,-6.279441833E-1,-1.018467087E1,-3.846101990E0,1.090478496E1
4.738922042E0,-2.971321106E-1,-9.960736542E0,-1.251846771E0,1.004348945E1
4.748895042E0,2.643502808E0,-9.147328033E0,1.572330322E0,9.650592722E0
4.758868042E0,4.275558929E0,-8.984766083E0,1.127156067E-1,9.950835670E0
4.768841250E0,4.445006561E0,-9.754764862E0,-8.283773804E-1,1.075173149E1
4.778814250E0,3.730542297E0,-1.061936691E1,1.971400452E-1,1.125729824E1
4.788787250E0,3.090323639E0,-1.145433060E1,1.901944885E0,1.201537282E1
4.798759250E0,2.774630127E0,-1.141151962E1,2.913541260E0,1.210000310E1
4.808732250E0,2.244282990E0,-1.119776413E1,2.623294830E0,1.171786685E1
4.818705250E0,1.379830627E0,-1.191192902E1,8.919950867E-1,1.202470959E1
4.828678250E0,6.137237549E-3,-1.318772598E1,-1.263223114E0,1.324808993E1
4.838651250E0,-6.426136780E-1,-1.370055954E1,-2.625091095E0,1.396457616E1
4.848624250E0,-6.902146912E-1,-1.319760544E1,-2.733316040E0,1.349534002E1
4.858596250E0,-9.011260986E-1,-1.233150650E1,-2.028132477E0,1.252962099E1
4.868569250E0,-1.654060364E-1,-1.055095917E1,-1.498234406E0,1.065808636E1
4.878542250E0,5.486091614E-1,-9.041198730E0,-1.032103729E0,9.116440347E0
4.888515250E0,9.560618591E-1,-8.407566376E0,-5.971083069E-1,8.482792286E0
4.898488250E0,1.329984283E0,-8.422235870E0,-4.924758911E-2,8.526742671E0
4.908461250E0,1.855840759E0,-8.311166840E0,3.424877930E-1,8.522730610E0
4.918433250E0,2.499651947E0,-8.472381592E0,6.107299805E-2,8.833642488E0
4.928406250E0,2.144290924E0,-8.656049652E0,-2.348616028E-1,8.920781307E0
4.938379250E0,1.657353516E0,-8.286917267E0,-9.958790588E-1,8.509500195E0
4.948352250E0,1.530716858E0,-7.843988342E0,-1.396895142E0,8.113110578E0
4.958325250E0,1.294058990E0,-7.914192352E0,-1.564396820E0,8.170456944E0
4.968298250E0,6.327342224E-1,-8.295000458E0,-1.591490479E0,8.469960279E0
4.978271250E0,5.710624695E-1,-8.430468750E0,-1.971699829E0,8.676780273E0
4.988243250E0,1.231189728E0,-8.604706421E0,-2.660267944E0,9.090314971E0
4.998216250E0,1.527723083E0,-8.596623230E0,-2.866389313E0,9.189780001E0
5.008189250E0,1.973645782E0,-8.132288818E0,-2.790646820E0,8.821400613E0
5.018162250E0,2.073637848E0,-7.837701416E0,-2.066452789E0,8.366586194E0
5.028135250E0,2.009720764E0,-7.837252350E0,-1.346000977E0,8.202025395E0
5.038108250E0,1.715881805E0,-7.864495697E0,-8.656498718E-1,8.095918270E0
5.048080250E0,1.561403046E0,-8.036787415E0,-4.631369019E-1,8.200147999E0
5.058053250E0,1.337019653E0,-8.352929993E0,-1.285826111E-1,8.460236078E0
5.068026250E0,9.779164124E-1,-8.799301758E0,-9.160949707E-2,8.853949640E0
5.077999250E0,5.619314575E-1,-9.537267151E0,-3.188369751E-1,9.559125937E0
5.087972250E0,-6.197113037E-2,-1.029334488E1,-4.959187317E-1,1.030547062E1
5.097945250E0,-5.254074097E-1,-1.083042801E1,-1.000070343E0,1.088918567E1
5.107917250E0,-5.583389282E-1,-1.078896423E1,-1.920057220E0,1.097269845E1
5.117890250E0,2.739303589E-2,-1.014260834E1,-3.177292786E0,1.062866143E1
5.127863250E0,8.710386658E-1,-9.625733185E0,-4.249064026E0,1.055784035E1
5.137836250E0,1.307530975E0,-9.505533142E0,-4.195774841E0,1.047231226E1
5.147809250E0,7.342231750E-1,-9.903854828E0,-2.850971375E0,1.033215669E1
5.157782250E0,-6.074368286E-1,-1.081725540E1,-1.076860657E0,1.088768216E1
5.167755250E0,-1.611099701E0,-1.152303772E1,3.135978699E-1,1.163934638E1
5.177727250E0,-2.010768585E0,-1.163305893E1,1.457968140E-1,1.180646040E1
5.187700250E0,-2.015109558E0,-1.125793900E1,-1.327289886E0,1.151362477E1
5.197673250E0,-1.595382385E0,-1.084779190E1,-3.024310913E0,1.137393030E1
5.207646250E0,-1.006506958E0,-1.026370651E1,-4.036805420E0,1.107486007E1
5.217619250E0,-4.861889648E-1,-9.401200104E0,-4.320166168E0,1.035774004E1
5.227592250E0,-1.691482544E-2,-8.968150635E0,-3.784280548E0,9.733899074E0
5.237564250E0,1.428030396E-1,-9.194180603E0,-3.082839203E0,9.698311565E0
5.247537250E0,1.633103943E-1,-9.984387360E0,-3.669768677E0,1.063869651E1
5.257510250E0,4.981640625E-1,-1.096829132E1,-4.361180878E0,1.181403744E1
5.267483250E0,1.199455719E0,-1.187360870E1,-4.103566589E0,1.261984693E1
5.277456250E0,4.480183411E-1,-1.315045349E1,-2.114652557E0,1.332692398E1
5.287429250E0,2.891986084E-1,-1.416818710E1,-1.304387512E0,1.423104312E1
5.297401250E0,5.331912231E-1,-1.457070007E1,-9.484277344E-1,1.461126650E1
5.307374250E0,-7.185058594E-3,-1.567929474E1,-7.738906860E-2,1.567948737E1
5.317347250E0,-7.267387390E-1,-1.688743240E1,1.182391205E0,1.694436695E1
5.327320250E0,-8.454418945E-1,-1.810724579E1,2.211650848E0,1.826139429E1
5.337293250E0,1.368154907E-1,-1.858056152E1,2.384840698E0,1.873348473E1
5.347266250E0,1.626517639E0,-1.835797440E1,1.412612457E0,1.848394594E1
5.357238250E0,3.070265350E0,-1.809706696E1,-2.818638611E-1,1.835782691E1
5.367211250E0,3.927832031E0,-1.796938248E1,-1.763333130E0,1.847798460E1
5.377184250E0,4.652325439E0,-1.816278030E1,-2.699037323E0,1.894242653E1
5.387157250E0,4.882546692E0,-1.716884720E1,-2.159259796E0,1.797973802E1
5.397130250E0,4.636009369E0,-1.584200638E1,1.072669373E0,1.654123238E1
5.407103250E0,3.594475250E0,-1.460602661E1,2.990331573E0,1.533617777E1
5.417075250E0,2.533032532E0,-1.322125626E1,1.470991058E0,1.354184941E1
5.427048250E0,7.574249268E-2,-1.110989685E1,-2.374212799E0,1.136100486E1
5.437021250E0,-5.689668274E-1,-1.026610153E1,-1.594633942E0,1.040477877E1
5.446994250E0,1.070274353E-1,-1.002794678E1,-5.686674500E-1,1.004462812E1
5.456967250E0,9.595046997E-2,-9.721533966E0,-1.688488770E-1,9.723473612E0
5.466940250E0,-1.401086426E-1,-8.678652649E0,3.046165466E-1,8.685127142E0
5.476913250E0,6.750961304E-1,-6.809040527E0,1.142574005E0,6.937165347E0
5.486885250E0,1.432071991E0,-4.900359650E0,1.382674713E0,5.289247985E0
5.496858250E0,2.244133301E0,-3.435505829E0,1.846859436E0,4.499969372E0
5.506831250E0,3.163970490E0,-2.264341278E0,1.039887543E0,4.027321291E0
5.516804250E0,3.229683838E0,-1.916614380E0,4.408332825E-1,3.781349277E0
5.526777250E0,2.186652832E0,-2.344275055E0,1.011596375E0,3.361607259E0
5.536750250E0,1.577120361E0,-2.316133575E0,1.096469879E0,3.008991454E0
5.546722250E0,1.874252472E0,-1.153351593E0,1.152752838E0,2.484327139E0
5.556695250E0,1.791175232E0,-7.683522034E-1,9.999206543E-1,2.190551331E0
5.566668250E0,1.938917999E0,-1.112486572E0,5.634283447E-1,2.305315788E0
5.576641250E0,2.502046967E0,-1.211580505E0,1.058299255E-1,2.781971660E0
5.586614250E0,2.420915680E0,-1.252295837E0,-4.339476013E-1,2.759961615E0
5.596587250E0,2.005978546E0,-1.269659729E0,-1.008303223E0,2.579275314E0
5.606559250E0,1.610950012E0,-1.479523315E0,-1.692530365E0,2.765647884E0
5.616532250E0,1.063538361E0,-1.725012817E0,-2.723436584E0,3.394685537E0
5.626505250E0,7.673043823E-1,-2.230661316E0,-3.917353821E0,4.572774527E0
5.636478250E0,1.516646118E0,-3.006348267E0,-5.597010956E0,6.531835652E0
5.646451250E0,2.091001740E0,-4.450844421E0,-7.714208221E0,9.148295624E0
5.656424250E0,2.464624786E0,-7.122488708E0,-9.499695282E0,1.212635276E1
5.666396250E0,3.788621521E0,-1.020487885E1,-1.142080032E1,1.577744863E1
5.676369250E0,4.903203735E0,-1.308039917E1,-1.282308426E1,1.896232420E1
5.686342250E0,5.396727448E0,-1.628268997E1,-1.227956451E1,2.109593242E1
5.696315250E0,3.874842224E0,-1.871692795E1,-1.001926483E1,2.158062700E1
5.706288250E0,9.029223633E-1,-1.769395523E1,-7.884404297E0,1.939214149E1
5.716261250E0,-1.006057892E0,-1.473401047E1,-6.975344696E0,1.633274780E1
5.726233250E0,-2.816692657E0,-1.134311188E1,-7.475754089E0,1.387396280E1
5.736206250E0,-3.866908722E0,-7.758665771E0,-7.862549744E0,1.170339977E1
5.746179250E0,-3.917952576E0,-4.344864807E0,-8.370443573E0,1.021237133E1
5.756152250E0,-3.369044037E0,-2.172282715E0,-9.455537109E0,1.027017293E1
5.766124500E0,-2.419718170E0,-3.567231903E0,-8.511450348E0,9.540700524E0
5.776097500E0,-6.334826660E-1,-8.327632599E0,-2.843187561E0,8.822385193E0
5.786069500E0,4.305346985E0,-1.271096741E1,2.320175171E0,1.361939492E1
5.796042500E0,8.915160828E0,-1.573887085E1,3.781286774E0,1.847945556E1
5.806015500E0,1.075199112E1,-1.720387436E1,1.152453461E0,2.032010716E1
5.815988500E0,1.026310776E1,-1.824016937E1,-4.943020935E0,2.150508348E1
5.825961500E0,8.751101990E0,-1.779394730E1,-1.135448822E1,2.285018051E1
5.835934500E0,8.046816559E0,-1.135613480E1,-2.842139740E0,1.420530931E1
5.845906500E0,6.889273682E0,-3.329376526E0,3.691024475E0,8.495322336E0
5.855879500E0,5.842201080E0,-1.438508606E-1,1.351240082E0,5.998154407E0
5.865852500E0,6.051016846E0,-1.782044220E0,-2.923420715E-1,6.314740720E0
5.875825500E0,3.197051697E0,-5.271288300E0,-2.383044434E-1,6.169636042E0
5.885798500E0,-2.330653381E-1,-1.018571869E1,2.126328278E0,1.040790356E1
5.895771500E0,-1.706152039E0,-1.346734451E1,6.400090942E0,1.500804741E1
5.905743500E0,1.329235840E-1,-1.334894073E1,7.425758057E0,1.527592125E1
5.915716500E0,6.548881531E-1,-1.365355728E1,5.313051453E0,1.466550445E1
5.925689500E0,-1.010698242E0,-1.473266327E1,2.360441437E0,1.495475047E1
5.935662500E0,-3.400628357E0,-1.509371246E1,-4.805756378E0,1.620122599E1
5.945635500E0,-1.985770569E0,-1.334040848E1,-5.529950409E0,1.457704135E1
5.955608500E0,7.200027466E-2,-1.122695343E1,-1.838027802E0,1.137664333E1
5.965580500E0,1.357077942E0,-9.585017853E0,-4.785548401E-1,9.692432229E0
5.975553500E0,2.465223541E0,-8.642877045E0,-1.869462433E0,9.179953186E0
5.985526500E0,2.348915405E0,-8.755293274E0,-2.143692169E0,9.314933173E0
5.995499500E0,1.777852936E0,-9.236991577E0,-8.674461365E-1,9.446440454E0
6.005472500E0,2.064506836E0,-9.808054047E0,-9.069639587E-1,1.006393046E1
6.015445500E0,1.734592896E0,-1.013841705E1,-8.791218567E-1,1.032323438E1
6.025417500E0,7.584727478E-1,-1.006506958E1,-4.408332825E-1,1.010322921E1
6.035390500E0,-1.240919495E-1,-9.928104401E0,-4.445755005E-2,9.928979418E0
6.045363500E0,-9.647438049E-1,-9.638007660E0,3.362008667E-1,9.692004606E0
6.055336500E0,-1.593586121E0,-8.936416626E0,7.447013855E-1,9.107888833E0
6.065309500E0,-1.083147583E0,-8.429121552E0,2.493814087E-1,8.502087385E0
6.075282500E0,-4.096980286E-1,-8.381221161E0,-5.231620789E-1,8.407521584E0
6.085254500E0,6.968009949E-1,-8.432564392E0,-1.801653442E0,8.650990058E0
6.095227500E0,1.398092651E0,-8.614585876E0,-2.202819214E0,9.001009131E0
6.105200500E0,2.059417419E0,-8.560847626E0,-2.873424683E0,9.262066810E0
6.115173500E0,2.049837341E0,-8.317304077E0,-2.779569855E0,9.005853031E0
6.125146500E0,1.995051270E0,-8.022117920E0,-2.191143494E0,8.551942195E0
6.135119500E0,2.374512177E0,-7.621550903E0,-1.923050995E0,8.211240550E0
6.145091500E0,2.726130981E0,-7.169191589E0,-1.950893097E0,7.914232878E0
6.155064500E0,2.842139740E0,-7.075636139E0,-1.559157715E0,7.782888786E0
6.165037500E0,2.236050110E0,-7.793393555E0,-1.088985443E0,8.180635213E0
6.175010500E0,1.341959381E0,-8.821755066E0,-9.250762939E-1,8.971063681E0
6.184983500E0,4.966671753E-1,-9.845176849E0,-9.743238831E-1,9.905730286E0
6.194956500E0,-1.800755310E-1,-1.068148773E1,-9.503736877E-1,1.072519545E1
6.204928500E0,-7.384144592E-1,-1.120210510E1,-7.801776123E-1,1.125349242E1
6.214901500E0,-1.107247467E0,-1.135927826E1,-9.598040771E-1,1.145340226E1
6.224874500E0,-1.220711517E0,-1.108415039E1,-2.170037384E0,1.136035161E1
6.234847500E0,-1.023571472E0,-1.016326538E1,-4.044589233E0,1.098628071E1
6.244820500E0,-7.367678833E-1,-9.016051025E0,-4.728816376E0,1.020753189E1
6.254792500E0,-7.092251587E-1,-9.061107330E0,-3.534300385E0,9.751817553E0
6.264765500E0,-1.045276337E0,-1.026759842E1,-1.640738068E0,1.045027279E1
6.274738500E0,-1.396296387E0,-1.105361389E1,-1.169068909E-1,1.114206852E1
6.284711500E0,-1.240769806E0,-1.102173019E1,1.574725342E-1,1.109246789E1
6.294684500E0,-6.634204102E-1,-1.038884628E1,-6.526428223E-1,1.043044565E1
6.304657500E0,3.897894287E-1,-1.017209702E1,-2.170486450E0,1.040838628E1
6.314630500E0,1.566941528E0,-1.025936554E1,-3.552861786E0,1.096962688E1
6.324602500E0,1.989961853E0,-1.079180832E1,-4.228856049E0,1.176036983E1
6.334575500E0,1.626517639E0,-1.131796417E1,-4.055217133E0,1.213205088E1
6.344548500E0,1.521436157E0,-1.130853378E1,-4.130510559E0,1.213502459E1
6.354521500E0,2.103126526E0,-1.162347885E1,-4.713248749E0,1.271782668E1
6.364494500E0,2.821782074E0,-1.312291077E1,-4.238436127E0,1.407613519E1
6.374467500E0,3.614832916E0,-1.530267792E1,-3.316503296E0,1.606979037E1
6.384439500E0,4.495152283E0,-1.590487564E1,-2.693648529E0,1.674596087E1
6.394412500E0,4.899611206E0,-1.639091492E1,-1.128503265E0,1.714473101E1
6.404385500E0,4.610113220E0,-1.658401337E1,3.275189209E-1,1.721597839E1
6.414358500E0,4.330943756E0,-1.686827225E1,6.506968689E-1,1.742753823E1
6.424331500E0,4.593797150E0,-1.713112564E1,1.095122681E0,1.777013595E1
6.434303500E0,4.739743652E0,-1.696646805E1,1.447489929E0,1.767544724E1
6.444276500E0,4.878355408E0,-1.621068970E1,1.222358093E0,1.697288930E1
6.454249500E0,4.239334259E0,-1.472772354E1,-5.830375671E-1,1.533680959E1
6.464222500E0,3.544778595E0,-1.338292007E1,-2.113754425E0,1.400485497E1
6.474195500E0,3.395089874E0,-1.273806107E1,-2.556234283E0,1.342829731E1
6.484168500E0,2.592458954E0,-1.211790070E1,-9.705816650E-1,1.243005991E1
6.494140500E0,1.938019867E0,-1.154564072E1,-1.627116394E-1,1.170829687E1
6.504113500E0,1.317410431E0,-1.122665405E1,-1.661544800E-1,1.130490773E1
6.514086500E0,8.563691711E-1,-1.085946762E1,-4.279600525E-1,1.090158498E1
6.524059500E0,6.406677246E-1,-9.799222412E0,-1.201401672E0,9.893360450E0
6.534032500E0,1.011446686E0,-8.784931641E0,-1.393003235E0,8.952011301E0
6.544005500E0,1.266665955E0,-8.309220886E0,-1.511107635E0,8.539967252E0
6.553977500E0,1.488654327E0,-7.903714142E0,-1.132095795E0,8.121972041E0
6.563950500E0,1.803599396E0,-7.184010773E0,-3.652404785E-1,7.415954569E0
6.573923500E0,2.924468536E0,-5.969735870E0,1.465452576E-1,6.649190785E0
6.583896500E0,3.788022766E0,-4.135599976E0,3.203338623E-2,5.608326825E0
6.593869500E0,3.523822174E0,-2.763253784E0,-7.577243042E-1,4.541700156E0
6.603842500E0,2.913690948E0,-1.605710907E0,-7.598199463E-1,3.412510632E0
6.613814500E0,2.252515869E0,-1.178798676E0,-4.206253052E-2,2.542668542E0
6.623787500E0,1.806593170E0,-1.321751404E0,3.652404785E-2,2.238780843E0
6.633760500E0,1.205293579E0,-1.963167572E0,-1.275347900E-1,2.307168102E0
6.643733500E0,6.500981140E-1,-2.696941681E0,-2.727328491E-1,2.787562590E0
6.653706500E0,4.890330505E-1,-3.015479279E0,-4.242178345E-1,3.084190230E0
6.663679500E0,5.092410278E-1,-3.107388153E0,-1.128203888E0,3.344851502E0
6.673651500E0,6.439608765E-1,-3.200793915E0,-1.829046478E0,3.742349304E0
6.683624500E0,5.869294739E-1,-3.154540100E0,-2.154320068E0,3.864803282E0
6.693597500E0,3.091072083E-1,-2.640059967E0,-2.361638947E0,3.555671865E0
6.703570500E0,6.248007202E-1,-2.354304199E0,-2.645299072E0,3.595932617E0
6.713543500E0,6.194119263E-1,-3.198398895E0,-3.220103760E0,4.580665328E0
6.723515500E0,9.250762939E-1,-4.615352325E0,-4.076622620E0,6.227045465E0
6.733488500E0,6.421646118E-1,-5.553301849E0,-4.638853455E0,7.264330540E0
6.743461500E0,1.332229614E0,-6.706952820E0,-5.574857025E0,8.822532671E0
6.753434500E0,2.156415710E0,-8.565637665E0,-7.447762299E0,1.155376305E1
6.763407917E0,1.864522705E0,-1.043704605E1,-1.079839462E1,1.513319866E1
6.773380917E0,1.358125763E0,-1.329894470E1,-1.271650589E1,1.845036471E1
6.783352917E0,4.294569397E-1,-1.639914780E1,-1.387165375E1,2.148346479E1
6.793325917E0,7.875123596E-1,-1.818089264E1,-1.329610062E1,2.253777550E1
6.803298917E0,1.181044006E0,-1.615695145E1,-1.112576385E1,1.965259694E1
6.813271917E0,2.060914307E0,-1.221834183E1,-9.120833130E0,1.538586500E1
6.823244917E0,3.179089050E0,-8.719817047E0,-7.676636353E0,1.204460718E1
6.833217917E0,3.438349915E0,-5.638025665E0,-6.487958221E0,9.257601494E0
6.843189917E0,2.900668030E0,-2.958298187E0,-5.811514893E0,7.137163900E0
6.853162917E0,2.126028900E0,-1.095122681E0,-6.172713776E0,6.619795157E0
6.863135917E0,1.357227631E0,-8.925938416E-1,-6.371949463E0,6.575753232E0
6.873108917E0,1.975891113E-2,-1.742526398E0,-3.831282806E0,4.208980471E0
6.883081917E0,9.774673462E-2,-2.594105530E0,-5.179229736E-2,2.596463049E0
6.893054917E0,3.244353333E0,-4.949756927E0,1.624421997E0,6.137154798E0
6.903026917E0,6.353837128E0,-9.079968109E0,2.784808960E0,1.142682056E1
6.912999917E0,7.752378845E0,-1.358904144E1,3.521726532E0,1.603633321E1
6.922972917E0,8.429570618E0,-1.809452225E1,3.861370239E0,2.033173815E1
6.932945917E0,9.355694733E0,-2.331027603E1,-2.102527771E0,2.520552748E1
6.942918917E0,6.984775085E0,-3.076222961E1,-1.884042114E1,3.674320784E1
6.952891917E0,5.300926666E0,-2.663980225E1,-7.682623901E0,2.822767432E1
6.962863917E0,3.820954285E0,-1.336495743E1,6.514602814E0,1.535128101E1
6.972836917E0,3.315754852E0,-6.317911835E0,4.600682831E0,8.489789320E0
6.982809917E0,2.920576630E0,-3.378324738E0,-2.336341553E0,5.039973981E0
6.992782917E0,1.780397644E0,-2.166744232E0,-1.888622589E0,3.381048894E0
7.002755917E0,9.160949707E-1,-4.532873840E0,4.135749664E0,6.204079346E0
7.012727917E0,-2.781216431E-1,-9.196875000E0,6.046226807E0,1.100984650E1
7.022700917E0,-9.312135315E-1,-1.305480240E1,5.099745026E0,1.404643811E1
7.032673917E0,-1.778451691E0,-1.609767471E1,3.126697998E0,1.649467375E1
7.042646917E0,-2.198627930E0,-1.688114548E1,1.613045654E0,1.709996941E1
7.052619917E0,-6.132746887E-1,-1.434886139E1,1.632205811E0,1.445441195E1
7.062592917E0,7.318281555E-1,-1.117546051E1,2.256108398E0,1.142438249E1
7.072564917E0,1.390608215E0,-9.310488739E0,2.874023438E0,9.842713167E0
7.082537917E0,1.963466949E0,-8.261170807E0,3.482059021E0,9.177520394E0
7.092510917E0,2.742297363E0,-7.572602692E0,3.500770111E0,8.781793537E0
7.102483917E0,3.632645874E0,-7.038812714E0,2.283052368E0,8.243380895E0
7.112456917E0,4.708608398E0,-5.803880768E0,-5.885910187E0,9.513146890E0
7.122429917E0,4.697980499E0,-5.387147369E0,-8.239915009E0,1.090818853E1
7.132401917E0,3.595074005E0,-6.648574219E0,-1.428030396E0,7.692032700E0
7.142374917E0,1.931583252E0,-8.180039520E0,1.000519409E0,8.464342827E0
7.152347917E0,1.221459961E-1,-9.535021820E0,1.362167358E0,9.632604044E0
7.162320917E0,-7.890092468E-1,-1.068343369E1,2.442919922E-1,1.071531472E1
7.172293917E0,-1.030457153E0,-1.125344833E1,-1.318757629E-1,1.130129783E1
7.182266917E0,-9.996212769E-1,-1.093865295E1,-6.631210327E-1,1.100423103E1
7.192238917E0,-1.038390656E0,-1.031549881E1,-1.237476654E0,1.044122212E1
7.202211917E0,-9.762698364E-1,-9.924511871E0,-1.378782806E0,1.006727772E1
7.212184917E0,-4.793032837E-1,-9.429940338E0,-1.061293030E0,9.501570887E0
7.222157917E0,2.324665833E-1,-8.857081604E0,-1.505569153E0,8.987139352E0
7.232130917E0,8.846603394E-1,-8.312214661E0,-1.869312744E0,8.565621204E0
7.242102917E0,1.157093811E0,-8.132737885E0,-1.907183990E0,8.433127674E0
7.252075917E0,9.843530273E-1,-8.205336914E0,-1.849404144E0,8.468577239E0
7.262048917E0,4.382885742E-1,-8.464148712E0,-1.831441498E0,8.671106519E0
7.272021917E0,1.838177490E-1,-9.003776550E0,-1.627116394E0,9.151463757E0
7.281994917E0,-1.511856079E-2,-9.701325989E0,-1.220711517E0,9.777836730E0
7.291967917E0,-4.992118835E-1,-1.003243744E1,-5.077441406E-1,1.005767456E1
7.301939917E0,-4.379891968E-1,-9.815388794E0,6.242019653E-2,9.825354344E0
7.311912917E0,3.863465881E-1,-9.248966675E0,5.209167480E-2,9.257178932E0
7.321885917E0,1.351240082E0,-8.682843933E0,-7.433541870E-1,8.818741632E0
7.331858917E0,1.961071930E0,-8.303682404E0,-1.689985657E0,8.697873079E0
7.341831917E0,1.911375275E0,-8.596024475E0,-1.852697296E0,8.998748773E0
7.351804917E0,1.146166534E0,-9.171876984E0,-7.884104919E-1,9.276778333E0
7.361776917E0,-1.984872437E-1,-9.818232880E0,5.557942200E-1,9.835954518E0
7.371749917E0,-8.247848511E-1,-1.045455963E1,1.039588165E0,1.053844536E1
7.381722917E0,-7.304809570E-1,-1.071636520E1,6.611750793E-1,1.076156300E1
7.391695917E0,-3.257226562E-1,-1.052341644E1,-1.853146362E-1,1.053008691E1
7.401668917E0,1.151106262E-1,-1.012569351E1,-1.182391205E0,1.019514436E1
7.411641917E0,3.980223083E-1,-9.810299377E0,-2.196681976E0,1.006110368E1
7.421613917E0,5.378315735E-1,-9.921667786E0,-2.622546387E0,1.027650252E1
7.431586917E0,5.601351929E-1,-1.007225464E1,-2.100581818E0,1.030419861E1
7.441559917E0,4.971162415E-1,-1.049302963E1,-1.694925385E0,1.064065635E1
7.451532917E0,3.631448364E-1,-1.095706467E1,-1.822759552E0,1.111357695E1
7.461505917E0,1.463955688E-1,-1.132724487E1,-2.181713104E0,1.153636772E1
7.471477917E0,-1.020877075E-1,-1.153800659E1,-2.709515533E0,1.185232013E1
7.481450917E0,-2.544708252E-1,-1.179412399E1,-3.046464844E0,1.218388543E1
7.491423917E0,-2.920426941E-1,-1.192614944E1,-2.862347717E0,1.226830730E1
7.501396917E0,-8.577163696E-2,-1.162288010E1,-2.128423920E0,1.181646677E1
7.511369917E0,4.939727783E-1,-1.108430008E1,-1.307680664E0,1.117209676E1
7.521342917E0,1.302441559E0,-1.042447220E1,-1.372944946E0,1.059485500E1
7.531314917E0,2.324516144E0,-1.011296997E1,-1.474433899E0,1.048091085E1
7.541287917E0,3.761976929E0,-1.058778259E1,-1.232836304E0,1.130369391E1
7.551260917E0,4.882846069E0,-1.252819748E1,-1.281036072E0,1.350699712E1
7.561233917E0,5.247487793E0,-1.509550873E1,-1.010997620E0,1.601351392E1
7.571206917E0,5.796695709E0,-1.722662704E1,-4.305047607E-1,1.818086067E1
7.581179917E0,6.863976288E0,-1.768332733E1,8.577163696E-2,1.896896394E1
7.591151917E0,7.396419067E0,-1.754471558E1,-2.324665833E-1,1.904148367E1
7.601124917E0,7.156917114E0,-1.746927246E1,-3.936813354E-1,1.888258266E1
7.611097917E0,6.633156281E0,-1.660571823E1,2.095642090E-3,1.788151684E1
7.621070917E0,5.716163177E0,-1.487247253E1,-1.673519897E-1,1.593401919E1
7.631043917E0,5.379513245E0,-1.246368164E1,-1.687740326E0,1.367958297E1
7.641016917E0,4.440366211E0,-1.148875900E1,-2.322270813E0,1.253400883E1
7.650988917E0,3.430266724E0,-1.104672821E1,5.957611084E-2,1.156721588E1
7.660961917E0,3.486100616E0,-1.093670700E1,1.123563538E0,1.153372674E1
7.670934917E0,2.778671722E0,-1.101619171E1,-1.560804291E0,1.146793819E1
7.680907917E0,1.491199036E0,-1.038196060E1,-2.022444305E0,1.068171622E1
7.690880917E0,3.659889221E-1,-9.850565643E0,-1.018182678E0,9.909807634E0
7.700852917E0,-5.743556213E-1,-9.984537048E0,-4.228706360E-1,1.000997922E1
7.710825917E0,-5.957611084E-1,-9.295220490E0,-7.539820862E-1,9.344760256E0
7.720798917E0,-4.101470947E-2,-8.674311676E0,-1.166973267E0,8.752553448E0
7.730771917E0,1.369651794E-1,-8.048762512E0,-1.160536652E0,8.133153310E0
7.740744917E0,2.974314880E-1,-7.418423309E0,-1.209784241E0,7.522303357E0
7.750717917E0,5.090913391E-1,-6.666237488E0,-1.064137115E0,6.769806795E0
7.760689917E0,1.081051941E0,-5.075944519E0,-1.150208130E0,5.315718653E0
7.770663500E0,1.474882965E0,-3.765868835E0,-1.585353241E0,4.344006531E0
7.780636500E0,1.105900269E0,-2.893482971E0,-1.356179810E0,3.381491207E0
7.790609500E0,1.058448944E0,-2.359243927E0,-8.147557068E-1,2.711120236E0
7.800582500E0,1.319506073E0,-1.952240295E0,-5.387297058E-1,2.417140489E0
7.810554500E0,1.359622650E0,-1.985620880E0,-4.267625427E-1,2.444052024E0
7.820527500E0,1.289867706E0,-2.237097931E0,-4.092489624E-1,2.614545958E0
7.830500500E0,1.017883301E0,-2.516866150E0,-5.147795105E-1,2.763276963E0
7.840473500E0,7.520361328E-1,-2.717598724E0,-8.274792480E-1,2.938643067E0
7.850446500E0,6.936575317E-1,-2.854414215E0,-1.192570038E0,3.170341398E0
7.860419500E0,6.921606445E-1,-3.013383636E0,-1.396446075E0,3.392584404E0
7.870391500E0,7.234455872E-1,-2.886148224E0,-1.664388885E0,3.409313047E0
7.880364500E0,9.479786682E-1,-2.673739929E0,-2.031425629E0,3.489160193E0
7.890337500E0,1.147663422E0,-3.022664337E0,-2.801574097E0,4.278136095E0
7.900310500E0,8.984317017E-1,-4.195625153E0,-4.129163361E0,5.954866917E0
7.910283500E0,6.149212646E-1,-5.780978394E0,-5.094356232E0,7.729832130E0
7.920256500E0,5.346881104E-1,-7.227570190E0,-6.012397156E0,9.416612012E0
7.930228500E0,7.402107239E-1,-8.749455414E0,-7.472311249E0,1.152980127E1
7.940201500E0,9.767189026E-1,-1.025173141E1,-9.712253265E0,1.415555864E1
7.950174500E0,9.383985901E-1,-1.196312256E1,-1.208002945E1,1.702715492E1
7.960147500E0,5.068460083E-1,-1.382869308E1,-1.395877258E1,1.965545668E1
7.970120500E0,2.594105530E-1,-1.517409531E1,-1.410486877E1,2.071877857E1
7.980092500E0,8.464897156E-1,-1.475915817E1,-1.239647141E1,1.929305051E1
7.990065500E0,1.469344482E0,-1.264615219E1,-1.019724472E1,1.631158908E1
8.000038500E0,2.217039642E0,-1.026355682E1,-7.748187561E0,1.304953156E1
8.010011500E0,2.839894409E0,-7.816595306E0,-5.917344818E0,1.020681792E1
8.019984500E0,3.382815399E0,-5.418132935E0,-5.014123077E0,8.120408534E0
8.029957500E0,3.312761078E0,-3.445385284E0,-4.556075592E0,6.603248482E0
8.039929500E0,1.977986755E0,-2.394869843E0,-5.088518372E0,5.961614914E0
8.049902500E0,7.179071045E-1,-2.670596466E0,-5.876629486E0,6.494786387E0
8.059875500E0,8.303233337E-1,-4.311334534E0,-5.636528778E0,7.144753247E0
8.069848500E0,1.650767212E0,-6.468348999E0,-3.650159454E0,7.608431849E0
8.079821500E0,3.695066071E0,-8.696315918E0,-2.314487000E0,9.728117695E0
8.089794500E0,6.518943787E0,-1.140897491E1,-1.798509979E0,1.326257799E1
8.099766500E0,8.368796997E0,-1.437026688E1,-1.461560669E0,1.669363630E1
8.109739500E0,8.516240387E0,-1.710103821E1,-1.035696259E0,1.913229011E1
8.119712500E0,8.025560760E0,-1.861409180E1,-2.506088562E0,2.042485052E1
8.129685500E0,5.077591095E0,-1.984767654E1,-1.027313690E1,2.291832318E1
8.139658500E0,2.788251801E0,-1.794258820E1,-7.075636139E0,1.948782815E1
8.149630500E0,3.188968506E0,-1.180235687E1,3.283422089E0,1.265883125E1
8.159603500E0,3.578907623E0,-6.199208679E0,6.308182068E0,9.541065403E0
8.169576500E0,3.804937592E0,-4.481380920E0,3.221301270E0,6.703514518E0
8.179549500E0,3.185675354E0,-4.813989258E0,5.513035583E-1,5.798875378E0
8.189522500E0,1.810036011E0,-6.117029572E0,1.019679565E0,6.460187889E0
8.199495500E0,1.042432251E0,-8.646170197E0,2.771636353E0,9.139195377E0
8.209467500E0,1.515448608E0,-1.038675064E1,3.674259338E0,1.112121194E1
8.219440500E0,2.136058044E0,-1.127665009E1,3.359613647E0,1.195878694E1
8.229413500E0,1.737886047E0,-1.282128799E1,2.724334717E0,1.322224162E1
8.239386500E0,1.243314514E0,-1.441906540E1,2.568059692E0,1.469864649E1
8.249359500E0,7.288343811E-1,-1.505599091E1,1.976489868E0,1.520265023E1
8.259332500E0,5.977070618E-1,-1.372091721E1,7.649093628E-1,1.375521389E1
8.269304500E0,1.235081635E0,-1.065484314E1,7.619155884E-2,1.072645860E1
8.279277500E0,1.476230164E0,-8.638536072E0,-1.152603149E-2,8.763771666E0
8.289250500E0,1.640738068E0,-7.628586273E0,-1.061293030E0,7.874877322E0
8.299223500E0,1.969903564E0,-7.311994629E0,-4.260140991E0,8.688762097E0
8.309196500E0,2.267035675E0,-7.971822510E0,-3.432661743E0,8.970650563E0
8.319169500E0,2.222877502E0,-8.634045410E0,-9.800120544E-1,8.969300316E0
8.329141500E0,1.274300079E0,-8.889264679E0,1.706451416E-1,8.981758569E0
8.339114500E0,9.280700684E-3,-9.089997253E0,4.339476013E-1,9.100354208E0
8.349087500E0,-8.475375366E-1,-9.475745087E0,7.292834473E-1,9.541484118E0
8.359060500E0,-1.066981201E0,-9.858349457E0,1.051413574E0,9.971508081E0
8.369033500E0,-1.135688324E0,-1.011820908E1,1.076411591E0,1.023848645E1
8.379005500E0,-8.741821289E-1,-9.800120544E0,3.409909058E-1,9.844939404E0
8.388978500E0,-1.000669098E0,-9.435478821E0,-4.724176025E-1,9.500146189E0
8.398951500E0,-1.286125488E0,-9.821076965E0,-9.692344666E-1,9.952240300E0
8.408924500E0,-1.030457153E0,-1.002839584E1,-1.147064667E0,1.014624672E1
8.418897500E0,1.481918335E-2,-9.606273651E0,-2.115401001E0,9.836444198E0
8.428870500E0,7.755372620E-1,-9.302106171E0,-2.616109772E0,9.694053208E0
8.438842500E0,1.397942963E0,-9.120533752E0,-2.426154785E0,9.540681710E0
8.448815500E0,1.729054413E0,-8.910071411E0,-1.838027802E0,9.260526330E0
8.458788500E0,1.841770020E0,-8.626111908E0,-1.325493622E0,8.919577165E0
8.468761500E0,1.688788147E0,-8.469986572E0,-8.331674194E-1,8.676799288E0
8.478734500E0,1.466350708E0,-8.372838593E0,-3.080593872E-1,8.505851579E0
8.488706500E0,1.217118988E0,-8.264164581E0,5.523513794E-2,8.353493029E0
8.498679500E0,9.207353210E-1,-8.562793579E0,-5.777984619E-2,8.612347294E0
8.508652500E0,4.571493530E-1,-8.902287598E0,-6.695576477E-1,8.939128450E0
8.518625500E0,5.912704468E-2,-9.223220215E0,-1.206491089E0,9.301984083E0
8.528598500E0,2.177970886E-1,-9.388027496E0,-1.367107086E0,9.489545702E0
8.538571500E0,7.086264038E-1,-9.483678589E0,-1.655108185E0,9.653066563E0
8.548543500E0,9.584568787E-1,-9.921967163E0,-2.282603302E0,1.022616007E1
8.558516500E0,9.105564880E-1,-1.040965302E1,-2.359992371E0,1.071258853E1
8.568489500E0,6.833290100E-1,-1.030786469E1,-1.225351868E0,1.040290825E1
8.578462500E0,6.477030945E-1,-9.970915375E0,2.219883728E-1,9.994396007E0
8.588435500E0,8.452922058E-1,-9.641151123E0,6.985972595E-1,9.703316548E0
8.598408500E0,9.859996033E-1,-9.465715942E0,-4.311035156E-2,9.517028529E0
8.608380500E0,5.752537537E-1,-9.267228699E0,-1.245260468E0,9.368197173E0
8.618353500E0,-3.106040955E-1,-9.247170410E0,-1.586251373E0,9.387376040E0
8.628326500E0,-9.502239990E-1,-9.816286926E0,-1.683399353E0,1.000481125E1
8.638299500E0,-1.315614166E0,-1.060918808E1,-1.886976013E0,1.085570775E1
8.648272500E0,-1.234931946E0,-1.138981476E1,-1.849254456E0,1.160485584E1
8.658245500E0,-8.330177307E-1,-1.211445786E1,-1.924398193E0,1.229460516E1
8.668217500E0,-3.544628906E-1,-1.279748749E1,-2.333796844E0,1.301337534E1
8.678190500E0,-1.627116394E-1,-1.318922287E1,-2.567760315E0,1.343783718E1
8.688163500E0,-1.838177490E-1,-1.343905334E1,-2.205214233E0,1.362001885E1
8.698136500E0,-2.694396973E-3,-1.288804916E1,-2.073039093E0,1.305370865E1
8.708109500E0,4.634362793E-1,-1.200039505E1,-2.445764008E0,1.225585640E1
8.718082500E0,1.504221954E0,-1.143202698E1,-2.463127899E0,1.179071345E1
8.728054500E0,3.023412781E0,-1.123997635E1,-2.787203979E0,1.196856713E1
8.738027500E0,4.685855713E0,-1.181657730E1,-3.110381927E0,1.308675738E1
8.748000500E0,6.503525848E0,-1.336390961E1,-3.225941620E0,1.520843936E1
8.757973500E0,6.815327454E0,-1.467667969E1,-2.498155060E0,1.637358829E1
8.767946292E0,6.807693329E0,-1.449091599E1,-1.284329224E0,1.606178185E1
8.777919292E0,7.568561096E0,-1.425156372E1,-7.083270264E-1,1.615214886E1
8.787891292E0,6.591393127E0,-1.515433640E1,-7.747888184E-1,1.654390137E1
8.797864292E0,4.190685425E0,-1.513802032E1,-4.540058899E-1,1.571393092E1
8.807837292E0,2.651735687E0,-1.407717636E1,-4.673281860E-1,1.433237566E1
8.817810292E0,1.945803680E0,-1.258268417E1,8.846603394E-2,1.273255352E1
8.827783292E0,2.434237976E0,-1.189845703E1,2.800675964E-1,1.214813698E1
8.837755292E0,2.526296539E0,-1.170176605E1,9.684860229E-2,1.197175353E1
8.847728292E0,2.413131866E0,-1.166030228E1,-7.140151978E-2,1.190760063E1
8.857701292E0,2.256557465E0,-1.147783173E1,-1.880389709E0,1.184772291E1
8.867674292E0,2.125579834E0,-1.123952728E1,-2.127226410E0,1.163486809E1
8.877647292E0,2.157912598E0,-1.120644608E1,2.460882568E-1,1.141497174E1
8.887620292E0,2.007625122E0,-1.089614136E1,-3.532653809E-2,1.107960753E1
8.897592292E0,1.648821259E0,-1.041354492E1,-1.836231537E0,1.070197531E1
8.907565292E0,9.861492920E-1,-9.591005402E0,-2.421514435E0,9.941006347E0
8.917538292E0,3.442840576E-1,-8.996441803E0,-2.268682251E0,9.284471756E0
8.927511292E0,2.287243652E-1,-8.550519104E0,-1.547032928E0,8.692353114E0
8.937484292E0,5.189707947E-1,-8.110583954E0,-3.817062378E-1,8.136129449E0
8.947457292E0,9.526190186E-1,-7.363188171E0,4.534071350E-1,7.438386994E0
8.957429292E0,1.710193634E0,-5.600753174E0,3.546125793E-1,5.866766440E0
8.967402292E0,1.703457642E0,-3.607198792E0,-5.192701721E-1,4.022846327E0
8.977375292E0,1.255139923E0,-2.474803619E0,-1.069974976E0,2.974033562E0
8.987348292E0,9.666897583E-1,-2.212998047E0,-9.934840393E-1,2.611294694E0
8.997321292E0,1.113085327E0,-2.037113800E0,-1.259929962E0,2.641252561E0
9.007294292E0,1.193617859E0,-2.043849792E0,-1.168021088E0,2.639378493E0
9.017266292E0,1.029409332E0,-2.268981628E0,-1.165775757E0,2.750817027E0
9.027239292E0,1.143621826E0,-2.374362488E0,-1.328786774E0,2.951464449E0
9.037212292E0,1.460063782E0,-2.594255219E0,-1.535357208E0,3.349517598E0
9.047185292E0,1.689087524E0,-2.852168884E0,-1.860930176E0,3.801439876E0
9.057158292E0,1.626218262E0,-3.048560486E0,-2.083367615E0,4.034690507E0
9.067131292E0,1.654210052E0,-3.113675079E0,-2.543959808E0,4.347771257E0
9.077103292E0,1.587598572E0,-3.313958588E0,-3.331771545E0,4.960190760E0
9.087076292E0,1.351090393E0,-3.958218842E0,-4.419409790E0,6.084745232E0
9.097049292E0,9.131011963E-1,-5.126838684E0,-5.807473297E0,7.800318890E0
9.107022292E0,1.681004333E-1,-6.515800323E0,-7.244485016E0,9.745074384E0
9.116995292E0,6.930587769E-2,-8.040230255E0,-8.849447479E0,1.195670634E1
9.126968292E0,1.748364258E-1,-9.831555176E0,-1.113384705E1,1.485437966E1
9.136940292E0,7.105723572E-1,-1.196536789E1,-1.274105484E1,1.749312494E1
9.146913292E0,1.511257324E0,-1.378333740E1,-1.251083359E1,1.867579304E1
9.156886292E0,2.525847473E0,-1.409813278E1,-1.124147324E1,1.820736043E1
9.166859292E0,3.611689453E0,-1.245425125E1,-1.001133133E1,1.638229013E1
9.176832292E0,4.635111237E0,-1.004980133E1,-8.548423462E0,1.398421634E1
9.186805292E0,5.289250946E0,-8.191415863E0,-7.118447113E0,1.207260364E1
9.196777292E0,5.434898071E0,-6.785838776E0,-6.073919220E0,1.060557493E1
9.206750292E0,4.901557159E0,-5.687422943E0,-5.646557922E0,9.394448291E0
9.216723292E0,3.911815338E0,-5.323230286E0,-6.243067474E0,9.089277826E0
9.226696292E0,3.729644165E0,-6.614445190E0,-6.482270050E0,9.984035045E0
9.236669292E0,4.190236359E0,-8.938362579E0,-4.874164124E0,1.100953597E1
9.246642292E0,5.133874054E0,-1.054063065E1,-2.877765656E0,1.207241038E1
9.256614292E0,8.308173065E0,-1.156105865E1,-2.155966644E0,1.439902806E1
9.266587292E0,1.023197250E1,-1.321526871E1,-3.685635681E0,1.711492035E1
9.276560292E0,5.681884460E0,-1.504476425E1,-3.885919189E0,1.654476081E1
9.286533292E0,2.621049500E-1,-1.503174133E1,-6.259533234E0,1.628507608E1
9.296506292E0,-2.284848633E0,-1.366089203E1,-2.643353119E0,1.410063190E1
9.306479292E0,-6.173162842E-1,-9.197473755E0,5.853727112E0,1.091974011E1
9.316451292E0,1.592538300E0,-5.326822815E0,6.075715485E0,8.235626156E0
9.326424292E0,2.487377472E0,-4.670288086E0,1.201251984E0,5.426015465E0
9.336397292E0,2.733316040E0,-6.058800659E0,-1.350940704E0,6.782707630E0
9.346370292E0,2.176473999E0,-8.126301270E0,-2.984793091E-1,8.418010530E0
9.356343292E0,1.879042511E0,-1.012240036E1,7.503895569E-1,1.032263892E1
9.366316292E0,1.808239746E0,-1.164144150E1,9.880952454E-1,1.182240345E1
9.376288292E0,1.613345032E0,-1.185474792E1,7.584727478E-1,1.198804452E1
9.386261292E0,1.596280518E0,-1.158934982E1,9.288185120E-1,1.173558029E1
9.396234292E0,1.790426788E0,-1.200952606E1,6.372248840E-1,1.215896377E1
9.406207292E0,1.886377258E0,-1.240051300E1,-5.225633240E-1,1.255405171E1
9.416180292E0,1.961970062E0,-1.191073151E1,-1.978286133E0,1.223227156E1
9.426152292E0,2.436932373E0,-1.069930069E1,-2.446662140E0,1.124276791E1
9.436125292E0,2.768941956E0,-9.592801666E0,-1.803150330E0,1.014594670E1
9.446098292E0,2.899320831E0,-8.931327209E0,-1.201251984E0,9.466661150E0
9.456071292E0,3.004701691E0,-8.614136810E0,-8.035290527E-1,9.158452062E0
9.466044292E0,2.906206512E0,-8.805139618E0,-7.173083496E-1,9.300056519E0
9.476017292E0,2.191742249E0,-9.286089478E0,-2.595602417E-1,9.544766283E0
9.485990292E0,1.773511963E0,-9.387877808E0,3.719764709E-1,9.561169432E0
9.495962292E0,1.556912384E0,-9.165739746E0,6.659651184E-1,9.320851399E0
9.505935292E0,1.144070892E0,-9.230854340E0,8.788224792E-1,9.342906346E0
9.515908292E0,6.985972595E-1,-9.393565979E0,7.081773376E-1,9.446090994E0
9.525881292E0,2.526745605E-1,-9.634564819E0,3.206332397E-1,9.643209495E0
9.535854292E0,-3.161425781E-1,-9.968071289E0,2.278262329E-1,9.975685247E0
9.545826292E0,-1.170266418E0,-1.015383499E1,4.984634399E-2,1.022117279E1
9.555799292E0,-1.623374176E0,-1.015458344E1,-4.203259277E-1,1.029211263E1
9.565772292E0,-2.237996063E0,-1.006521927E1,-7.631130981E-1,1.033922661E1
9.575745292E0,-1.911674652E0,-9.670340424E0,-1.211430817E0,9.931643797E0
9.585718292E0,-1.078656921E0,-8.937614136E0,-1.902843018E0,9.201372655E0
9.595691292E0,-4.860392761E-1,-8.689280548E0,-2.165247345E0,8.968172985E0
9.605663292E0,-7.200027466E-2,-8.655750275E0,-1.641935577E0,8.810400065E0
9.615636292E0,4.531077576E-1,-8.772507477E0,-1.041085052E0,8.845679858E0
9.625609292E0,1.072968750E0,-8.849597168E0,-8.836125183E-1,8.958091485E0
9.635582292E0,1.337169342E0,-8.826096039E0,-8.400531006E-1,8.966252414E0
9.645555292E0,1.314865723E0,-8.713829498E0,-6.791377258E-1,8.838604214E0
9.655528292E0,1.381926270E0,-8.781937866E0,-6.001020813E-1,8.910234307E0
9.665500292E0,1.483864288E0,-9.006770325E0,-7.047344971E-1,9.155349017E0
9.675473292E0,1.523681488E0,-8.971144409E0,-7.599696350E-1,9.131297341E0
9.685446292E0,1.365310822E0,-8.859925690E0,-8.795709229E-1,9.007552491E0
9.695419292E0,1.216071167E0,-9.108408966E0,-1.193019104E0,9.266349743E0
9.705392292E0,1.072220306E0,-9.548194427E0,-1.569186859E0,9.735503100E0
9.715365292E0,8.346643066E-1,-9.856852570E0,-1.653760986E0,1.002941337E1
9.725337292E0,6.635700989E-1,-1.005953110E1,-1.405277710E0,1.017886519E1
9.735310292E0,5.628295898E-1,-1.019754410E1,-1.248104553E0,1.028904504E1
9.745283292E0,1.073268127E-1,-1.030142807E1,-1.306632843E0,1.038451870E1
9.755256292E0,-4.962181091E-1,-1.030322433E1,-9.991722107E-1,1.036344582E1
9.765229375E0,-1.053808594E0,-1.030561935E1,-7.439529419E-1,1.038603720E1
9.775202375E0,-1.272952881E0,-1.045725403E1,-8.376580811E-1,1.056769804E1
9.785174375E0,-1.252295837E0,-1.062535446E1,-1.234482880E0,1.076988163E1
9.795147375E0,-9.951306152E-1,-1.071052734E1,-1.491947479E0,1.085963113E1
9.805120375E0,-5.583389282E-1,-1.067609894E1,-2.012714539E0,1.087850407E1
9.815093375E0,-1.481918335E-2,-1.071411987E1,-2.837499390E0,1.108350067E1
9.825066375E0,3.945794678E-1,-1.109507767E1,-3.304977264E0,1.158357959E1
9.835039375E0,6.468049622E-1,-1.173604477E1,-3.382066956E0,1.223075960E1
9.845011375E0,5.736071777E-1,-1.222058716E1,-2.681972809E0,1.252456601E1
9.854984375E0,1.770817566E-1,-1.194051956E1,-1.794618073E0,1.207592727E1
9.864957375E0,6.286926270E-2,-1.166374512E1,-2.067350922E0,1.184570988E1
9.874930375E0,1.809736633E-1,-1.172122559E1,-2.557132416E0,1.199828350E1
9.884903375E0,-3.480262756E-1,-1.193632828E1,-2.596051483E0,1.222033299E1
9.894876375E0,1.502874756E-1,-1.158396103E1,-2.526895294E0,1.185731585E1
9.904848375E0,2.640658722E0,-1.126946503E1,-2.193089447E0,1.178064352E1
9.914821375E0,4.456083527E0,-1.387135437E1,-3.052602081E0,1.488588365E1
9.924794375E0,5.136418762E0,-1.552526505E1,-2.401905212E0,1.652833328E1
9.934767375E0,5.154830475E0,-1.624002869E1,-1.561552734E0,1.710991689E1
9.944740375E0,4.722828827E0,-1.666589310E1,-7.095245361E-1,1.733668163E1
9.954713375E0,4.939727783E0,-1.621024063E1,1.746867371E-1,1.694707430E1
9.964685375E0,4.496649170E0,-1.596070953E1,7.324269104E-1,1.659820929E1
9.974658375E0,4.262086945E0,-1.538455765E1,2.868035889E-1,1.596659812E1
9.984631375E0,3.811523895E0,-1.441637100E1,-5.634283447E-1,1.492236304E1
9.994604375E0,3.530258789E0,-1.323921890E1,-1.170865173E0,1.375174787E1
1.000457737E1,3.484903107E0,-1.217343521E1,-1.272803192E0,1.272623678E1
1.001455037E1,4.058809662E0,-1.172257278E1,2.354603577E-1,1.240758196E1
1.002452237E1,3.594026184E0,-1.180774567E1,9.102571106E-1,1.237612419E1
1.003449538E1,1.791923676E0,-1.149235153E1,-1.974543915E0,1.179762509E1
1.004446837E1,1.351240082E0,-1.138487503E1,-2.860701141E0,1.181629554E1
1.005444137E1,7.273374939E-1,-1.137843842E1,-2.125430145E0,1.159807458E1
1.006441437E1,4.900808716E-1,-1.120614670E1,-8.351133728E-1,1.124790280E1
1.007438737E1,1.769320679E-1,-1.047327072E1,3.570075989E-1,1.048084725E1
1.008435937E1,7.735913086E-1,-9.058562622E0,1.402433624E0,9.199066277E0
1.009433237E1,9.282197571E-1,-7.725434875E0,1.821562042E0,7.991371860E0
1.010430537E1,5.367837524E-1,-6.478976898E0,1.360520782E0,6.642009880E0
1.011427837E1,-6.780899048E-2,-5.928571472E0,6.735992432E-2,5.929341879E0
1.012425137E1,-2.659968567E-1,-4.765190735E0,-1.093176727E0,4.896205921E0
1.013422438E1,-7.978408813E-2,-3.124003601E0,-1.355880432E0,3.406490239E0
1.014419637E1,7.878117371E-1,-1.706750793E0,-1.907782745E0,2.678298080E0
1.015416937E1,7.864645386E-1,-1.521735535E0,-1.654958496E0,2.381825588E0
1.016414237E1,5.525010681E-1,-1.839375000E0,-6.496490479E-1,2.027461888E0
1.017411537E1,6.614744568E-1,-1.878144379E0,-3.070115662E-1,2.014753301E0
1.018408837E1,9.358538818E-1,-1.893262939E0,1.736389160E-2,2.112005812E0
1.019406137E1,1.312770081E0,-1.543440399E0,1.666035461E-1,2.033059343E0
1.020403337E1,1.503473511E0,-1.132544861E0,2.248324585E-1,1.895689873E0
1.021400637E1,1.783241730E0,-1.084045715E0,-5.146298218E-1,2.149406903E0
1.022397937E1,1.640139313E0,-1.015039215E0,-1.842668152E0,2.667543344E0
1.023395238E1,1.383722534E0,-1.109343109E0,-3.027154999E0,3.508418101E0
1.024392537E1,1.011446686E0,-1.978735199E0,-4.316723328E0,4.855153723E0
1.025389837E1,6.441105652E-1,-3.395239563E0,-5.652395782E0,6.625111938E0
1.026387037E1,4.334985352E-1,-4.799319763E0,-6.809938660E0,8.342461011E0
1.027384337E1,9.475296021E-1,-6.696624298E0,-8.298143921E0,1.070522218E1
1.028381637E1,9.559121704E-1,-9.193282471E0,-1.034798126E1,1.387483070E1
1.029378937E1,4.104464722E-1,-1.205937241E1,-1.252774841E1,1.739371753E1
1.030376237E1,2.688409424E-1,-1.536689438E1,-1.260618530E1,1.987786775E1
1.031373437E1,1.328188019E0,-1.838252335E1,-1.221804245E1,2.211248085E1
1.032370737E1,2.469265137E0,-1.871468262E1,-1.179292648E1,2.225780157E1
1.033368038E1,2.541415100E0,-1.415576294E1,-1.107756409E1,1.815370048E1
1.034365337E1,3.252436523E0,-1.028331573E1,-9.797875214E0,1.457131719E1
1.035362637E1,4.049978027E0,-8.316855011E0,-8.656199341E0,1.266894575E1
1.036359938E1,4.937781830E0,-8.100554810E0,-7.833659821E0,1.230312577E1
1.037357137E1,5.995332642E0,-1.002270767E1,-6.959477692E0,1.359533053E1
1.038354437E1,6.569688263E0,-1.224498642E1,-4.363426208E0,1.456502608E1
1.039351737E1,6.905589752E0,-1.232926117E1,-1.534758453E0,1.421454657E1
1.040349037E1,6.022276611E0,-9.817334747E0,4.281097412E-2,1.151736558E1
1.041346337E1,2.766097870E0,-6.199208679E0,6.602769470E-1,6.820370321E0
1.042343637E1,1.206491089E0,-4.076921997E0,6.899153137E-1,4.307307379E0
1.043340838E1,-2.335144043E-2,-4.240980835E0,-7.836204529E-1,4.312832566E0
1.044338137E1,-3.652404785E-2,-5.187312927E0,-1.959425354E0,5.545168810E0
1.045335437E1,1.801952820E0,-6.404282227E0,-2.439926147E-2,6.653003842E0
1.046332738E1,3.525618439E0,-7.581134949E0,7.214996338E-1,8.391910045E0
1.047330037E1,4.291126556E0,-8.931177521E0,-4.495152283E-1,9.918758137E0
1.048327337E1,4.911436615E0,-1.106708588E1,-1.038091278E0,1.215237561E1
1.049324537E1,5.819747772E0,-1.365535355E1,-1.078656921E0,1.488293134E1
1.050321837E1,5.292394409E0,-1.506557098E1,-5.680686951E-1,1.597822173E1
1.051319137E1,3.993246002E0,-1.432236649E1,6.491999817E-1,1.488279732E1
1.052316437E1,2.640808411E0,-1.247146545E1,1.846859436E0,1.288107951E1
1.053313737E1,1.397793274E0,-1.093281509E1,1.732197876E0,1.115709556E1
1.054311037E1,2.441423035E-1,-1.015952316E1,2.691403198E-1,1.016601952E1
1.055308237E1,-5.942642212E-1,-1.017419266E1,-1.563049622E0,1.031069689E1
1.056305538E1,-4.046086121E-1,-1.028316605E1,-2.196831665E0,1.052298824E1
1.057302837E1,2.233355713E-1,-1.017104919E1,-1.420845337E0,1.027224036E1
1.058300137E1,6.984475708E-1,-1.031669632E1,-8.556207275E-1,1.037565125E1
1.059297438E1,-1.155596924E-1,-1.092218719E1,-8.063731384E-1,1.095252322E1
1.060294737E1,-8.241860962E-1,-1.095257401E1,-7.900570679E-1,1.101191855E1
1.061291937E1,-8.830137634E-1,-1.055994049E1,-5.674699402E-1,1.061197807E1
1.062289237E1,-3.221301270E-1,-9.876761169E0,-1.889071655E-1,9.883818338E0
1.063286537E1,4.749623108E-1,-9.198970642E0,2.517764282E-1,9.214664478E0
1.064283837E1,9.924362183E-1,-8.532406769E0,5.514532471E-1,8.607612654E0
1.065281137E1,1.173858948E0,-8.283025360E0,1.472937012E-1,8.367087270E0
1.066278437E1,1.341959381E0,-8.373886414E0,-3.583547974E-1,8.488300584E0
1.067275637E1,1.244811401E0,-8.562344513E0,-5.065466309E-1,8.667173038E0
1.068272937E1,1.059496765E0,-8.574469299E0,-8.367599487E-1,8.680105090E0
1.069270238E1,7.851173401E-1,-8.666228485E0,-1.354533234E0,8.806513821E0
1.070267537E1,2.487826538E-1,-9.037606201E0,-1.516496429E0,9.167332222E0
1.071264837E1,1.088237000E-1,-9.006620636E0,-1.560504913E0,9.141456857E0
1.072262137E1,6.620732117E-1,-8.574020233E0,-1.886676636E0,8.804073638E0
1.073259337E1,1.106049957E0,-8.352181549E0,-2.116748199E0,8.686938821E0
1.074256637E1,1.333576813E0,-8.354576569E0,-1.838476868E0,8.657792672E0
1.075253937E1,1.496288452E0,-8.045469360E0,-1.284927979E0,8.283688567E0
1.076251237E1,1.755699005E0,-7.942034454E0,-7.104226685E-1,8.164746820E0
1.077248462E1,2.090552673E0,-8.149652710E0,-1.965412903E-1,8.415811206E0
1.078245762E1,2.157313843E0,-8.254883881E0,3.165916443E-1,8.537993978E0
1.079242962E1,1.993255005E0,-8.370443573E0,5.718109131E-1,8.623477190E0
1.080240262E1,1.542542267E0,-8.908125458E0,5.463638306E-1,9.057187712E0
1.081237563E1,1.079255676E0,-9.817334747E0,2.091151428E-1,9.878693410E0
1.082234862E1,7.170089722E-1,-1.041489212E1,-6.381230164E-1,1.045902867E1
1.083232162E1,5.292993164E-1,-1.030367340E1,-2.023192749E0,1.051376014E1
1.084229362E1,5.056484985E-1,-9.847272491E0,-3.206182709E0,1.036841663E1
1.085226662E1,3.951782227E-1,-9.817634125E0,-3.305725708E0,1.036677038E1
1.086223962E1,4.511618042E-1,-1.018826340E1,-2.099384308E0,1.041209261E1
1.087221262E1,5.010081482E-1,-1.086934708E1,-8.681945801E-1,1.091546961E1
1.088218562E1,4.821473694E-1,-1.164099243E1,-6.120771790E-1,1.166703944E1
1.089215862E1,1.820214844E-1,-1.177511353E1,-7.291337585E-1,1.179907057E1
1.090213062E1,-3.189866638E-1,-1.167586990E1,-1.063388672E0,1.172853298E1
1.091210363E1,-6.382727051E-1,-1.143561951E1,-1.384021912E0,1.153673707E1
1.092207662E1,-5.716612244E-1,-1.131197662E1,-1.436562653E0,1.141715043E1
1.093204962E1,1.802252197E-1,-1.080827408E1,-2.521955566E0,1.110006890E1
1.094202263E1,1.572629700E0,-1.028301636E1,-3.755091248E0,1.105957955E1
1.095199562E1,2.163600769E0,-1.025188110E1,-3.868704987E0,1.116911423E1
1.096196762E1,2.170187073E0,-1.090841583E1,-3.106490021E0,1.154787981E1
1.097194062E1,1.396895142E0,-1.175011551E1,-2.208657074E0,1.203722130E1
1.098191362E1,1.413061523E-1,-1.256996063E1,-1.874402161E0,1.270973096E1
1.099188662E1,-1.138382721E0,-1.325448715E1,-2.225571899E0,1.348816204E1
1.100185962E1,-2.517165527E0,-1.421982971E1,-2.968327332E0,1.474281678E1
1.101183262E1,-2.904110870E0,-1.326751007E1,-2.255359955E0,1.376761896E1
1.102180462E1,-1.133742371E0,-1.305270676E1,-1.556014252E0,1.319392685E1
1.103177762E1,2.707719269E0,-1.481618958E1,-2.637964325E0,1.529084932E1
1.104175063E1,3.571273499E0,-1.593556183E1,-2.409988403E0,1.650770030E1
1.105172362E1,3.559747467E0,-1.537587570E1,-1.128054199E0,1.582282724E1
1.106169662E1,3.233575745E0,-1.489297989E1,-3.682342529E-2,1.524002028E1
1.107166963E1,2.572700043E0,-1.514715134E1,1.772314453E-1,1.536510300E1
1.108164162E1,2.802771606E0,-1.506631943E1,3.264710999E-1,1.532827757E1
1.109161462E1,3.124602356E0,-1.452085373E1,1.926493835E-1,1.485447565E1
1.110158762E1,2.806813202E0,-1.389844803E1,-5.575904846E-1,1.418999525E1
1.111156062E1,2.665806427E0,-1.363709152E1,-1.442400513E0,1.396987145E1
1.112153362E1,2.930007019E0,-1.362302078E1,-8.481362915E-1,1.396033565E1
1.113150662E1,1.969304810E0,-1.340043365E1,6.316864014E-2,1.354451084E1
1.114147863E1,-2.164498901E-1,-1.364173187E1,-6.197113037E-1,1.365751592E1
1.115145162E1,-1.490001526E0,-1.411908920E1,-1.293909302E0,1.425633143E1
1.116142462E1,-2.126477966E0,-1.365191071E1,-1.331181793E0,1.388051222E1
1.117139763E1,-1.786534882E0,-1.286364990E1,-9.446855164E-1,1.302142951E1
1.118137062E1,-4.321513367E-1,-1.176059372E1,-8.622070312E-2,1.176884673E1
1.119134362E1,7.512876892E-1,-1.045216461E1,3.384461975E-1,1.048459461E1
1.120131562E1,1.020428009E0,-9.298813019E0,6.819818115E-1,9.379461396E0
1.121128862E1,8.940907288E-1,-8.042325897E0,1.389710083E0,8.210340930E0
1.122126162E1,1.323547668E0,-6.926396484E0,1.606609039E0,7.232422782E0
1.123123462E1,1.432970123E0,-5.159321136E0,8.774752808E-1,5.426044677E0
1.124120762E1,2.367027740E0,-3.147804108E0,5.403762817E-2,3.938833722E0
1.125118062E1,2.720442810E0,-2.340383148E0,1.073268127E-1,3.590225816E0
1.126115262E1,2.571652222E0,-1.936373291E0,4.577481079E-1,3.251533485E0
1.127112563E1,2.514022064E0,-1.562450867E0,6.965016174E-1,3.040834450E0
1.128109862E1,2.375559998E0,-1.686393127E0,1.097966766E0,3.113316255E0
1.129107162E1,2.126028900E0,-1.929786987E0,9.484277344E-1,3.023837275E0
1.130104462E1,1.870809631E0,-2.019899597E0,5.876779175E-1,2.815188874E0
1.131101662E1,1.678459625E0,-2.066602478E0,-1.143621826E-1,2.664798534E0
1.132098962E1,1.941612396E0,-2.095492401E0,-9.002279663E-1,2.995222444E0
1.133096262E1,1.905537415E0,-2.298021240E0,-1.335822144E0,3.270534399E0
1.134093562E1,1.480870514E0,-2.822680206E0,-1.995051270E0,3.760416279E0
1.135090862E1,1.311273193E0,-3.279679871E0,-2.985990601E0,4.625135383E0
1.136088162E1,1.065484314E0,-3.477268982E0,-4.084556122E0,5.469026889E0
1.137085363E1,8.533753967E-1,-3.832330627E0,-5.363795929E0,6.647203500E0
1.138082662E1,8.881031799E-1,-4.514013062E0,-7.263794861E0,8.598125200E0
1.139079962E1,9.054670715E-1,-5.671256561E0,-9.995314636E0,1.152776372E1
1.140077262E1,1.833836517E0,-7.741750946E0,-1.164578247E1,1.410396800E1
1.141074562E1,7.394622803E-1,-9.574839020E0,-1.314760941E1,1.628139981E1
1.142071862E1,1.109492798E0,-1.154115005E1,-1.200997513E1,1.669337058E1
1.143069062E1,2.060764618E0,-1.388303009E1,-9.775421906E0,1.710392203E1
1.144066362E1,1.757195892E0,-1.463701218E1,-8.191266174E0,1.686495492E1
1.145063662E1,1.646276550E0,-1.260708344E1,-7.112758942E0,1.456846316E1
1.146060962E1,1.832938385E0,-1.012195129E1,-6.916966095E0,1.239588565E1
1.147058263E1,1.544338531E0,-8.861721954E0,-7.362888794E0,1.162442381E1
1.148055562E1,1.494492188E0,-7.916737061E0,-8.705446930E0,1.186140965E1
1.149052762E1,2.087858276E0,-8.448581085E0,-1.033750305E1,1.351301757E1
1.150050062E1,2.174078979E0,-1.127844635E1,-8.364905090E0,1.420920859E1
1.151047362E1,2.720143433E0,-1.409139679E1,-2.116897888E0,1.450682255E1
1.152044662E1,5.442382507E0,-1.545820450E1,-6.512956238E-1,1.640121336E1
1.153041962E1,5.774841156E0,-1.466769836E1,-3.588188324E0,1.616679502E1
1.154039262E1,4.331542511E0,-1.166000290E1,-3.768413544E0,1.299687919E1
1.155036462E1,2.901715851E0,-8.174351349E0,-4.250560913E0,9.659567430E0
1.156033762E1,2.323767700E0,-5.660778351E0,-2.091600494E0,6.466768937E0
1.157031063E1,4.078119507E0,-3.779191132E0,3.318598938E0,6.475063184E0
1.158028362E1,6.488856354E0,-3.167862396E0,1.353934479E0,7.346682756E0
1.159025662E1,6.319857788E0,-4.146377563E0,-1.446292419E0,7.695765792E0
1.160022963E1,4.205953674E0,-6.349945221E0,-1.670526123E0,7.797596306E0
1.161020162E1,1.735191650E0,-9.303303680E0,-9.021739197E-1,9.506643320E0
1.162017462E1,9.616003418E-1,-1.153156998E1,5.254074097E-1,1.158351563E1
1.163014762E1,1.092428284E0,-1.179861465E1,2.885250092E0,1.219530137E1
1.164012062E1,1.241967316E0,-1.112770981E1,3.269950104E0,1.166451808E1
1.165009362E1,9.238787842E-1,-1.136346954E1,8.819659424E-1,1.143502759E1
1.166006662E1,-8.924441528E-1,-1.231219666E1,-2.863395538E0,1.267224041E1
1.167003863E1,-1.497036896E0,-1.249017654E1,-5.294939117E0,1.364851676E1
1.168001162E1,-3.376977539E-1,-1.166793640E1,-3.591182098E0,1.221275434E1
1.168998462E1,7.662565613E-1,-1.093431198E1,-2.018702087E0,1.114546929E1
1.169995763E1,1.819316711E0,-1.024170227E1,-2.104922791E0,1.061287325E1
1.170993062E1,2.539469147E0,-9.536668396E0,-2.736908569E0,1.024146553E1
1.171990262E1,2.526745605E0,-8.871002655E0,-2.679128723E0,9.605043580E0
1.172987562E1,2.057022400E0,-8.571475525E0,-2.130519562E0,9.068662935E0
1.173984862E1,1.584006042E0,-8.591683502E0,-1.357077942E0,8.841253366E0
1.174982162E1,8.747808838E-1,-9.237590332E0,-5.010081482E-1,9.292433799E0
1.175979462E1,2.183958435E-1,-1.004965164E1,1.127156067E-1,1.005265635E1
1.176976837E1,-1.233435059E-1,-1.043794418E1,2.478845215E-1,1.044161573E1
1.177974038E1,9.550140381E-2,-1.022134460E1,-1.308279419E-1,1.022262794E1
1.178971337E1,1.474433899E-1,-9.365873566E0,-1.125659180E-1,9.367710408E0
1.179968637E1,-2.490820312E-1,-8.714727631E0,2.176473999E-1,8.721002805E0
1.180965937E1,-1.884580994E-1,-8.917855225E0,-3.469784546E-1,8.926592424E0
1.181963237E1,8.532257080E-3,-9.302555237E0,-1.293909302E0,9.392114140E0
1.182960537E1,-2.642005920E-1,-9.570947113E0,-1.496288452E0,9.690805422E0
1.183957737E1,3.996688843E-1,-9.253157959E0,-2.000739441E0,9.475422193E0
1.184955038E1,1.084345093E0,-8.805888062E0,-2.724185028E0,9.281198893E0
1.185952337E1,1.381477203E0,-8.446335754E0,-2.939587097E0,9.049322585E0
1.186949637E1,1.670675812E0,-8.078999634E0,-2.821931763E0,8.719213934E0
1.187946938E1,1.647474060E0,-7.851622467E0,-2.215991821E0,8.323026246E0
1.188944237E1,1.519490204E0,-7.623347168E0,-1.358425140E0,7.891108375E0
1.189941437E1,1.547781372E0,-7.629035339E0,-5.807922363E-1,7.806095503E0
1.190938737E1,1.994302826E0,-7.858807526E0,-3.098556519E-2,8.107962728E0
1.191936037E1,1.967209167E0,-8.538544006E0,1.567240906E-1,8.763629847E0
1.192933337E1,1.788630524E0,-9.388027496E0,4.849914551E-2,9.557018970E0
1.193930637E1,1.141526184E0,-1.027762756E1,-7.155120850E-2,1.034107489E1
1.194927937E1,4.275109863E-1,-1.093296478E1,-1.706451416E-1,1.094265070E1
1.195925137E1,-1.953437805E-1,-1.094464050E1,-6.131250000E-1,1.096354127E1
1.196922437E1,-5.858816528E-1,-1.050081345E1,-1.409169617E0,1.061113092E1
1.197919738E1,-7.011419678E-1,-9.776469727E0,-2.534529419E0,1.012397154E1
1.198917037E1,-4.996609497E-1,-8.927435303E0,-3.745660858E0,9.694263119E0
1.199914337E1,-2.570155334E-1,-8.824599152E0,-4.196672974E0,9.775053515E0
1.200911638E1,-1.833686829E-1,-9.713301086E0,-3.129691772E0,1.020670430E1
1.201908837E1,-3.778143311E-1,-1.090242828E1,-1.056502991E0,1.096001299E1
1.202906137E1,-6.791377258E-1,-1.158171570E1,4.376898193E-1,1.160986386E1
1.203903437E1,-4.833448792E-1,-1.150881729E1,6.014492798E-1,1.153465383E1
1.204900737E1,8.292755127E-2,-1.121602615E1,-4.191284180E-1,1.122416092E1
1.205898037E1,8.354127502E-1,-1.067011139E1,-2.081122284E0,1.090322253E1
1.206895337E1,2.107168121E0,-9.429790649E0,-3.095263367E0,1.014602210E1
1.207892538E1,3.290756836E0,-8.108787689E0,-3.429069214E0,9.398937920E0
1.208889837E1,3.963457947E0,-7.524702301E0,-4.983586578E0,9.857295714E0
1.209887137E1,3.766617279E0,-8.317603455E0,-5.471721497E0,1.064470146E1
1.210884438E1,2.695145416E0,-1.017119888E1,-4.378095703E0,1.139670205E1
1.211881737E1,1.089434509E0,-1.191701843E1,-3.129392395E0,1.236912659E1
1.212878937E1,-1.226399689E0,-1.213750992E1,-2.462978210E0,1.244545961E1
1.213876237E1,-2.280657349E0,-1.206805435E1,-2.543810120E0,1.254234044E1
1.214873537E1,-2.011517029E0,-1.452250031E1,-3.230432281E0,1.501282480E1
1.215870837E1,-1.745520172E0,-1.691407700E1,-1.534159698E0,1.707297535E1
1.216868137E1,-1.960173798E0,-1.747331406E1,1.356179810E-1,1.758344044E1
1.217865437E1,-1.641785889E0,-1.784978119E1,3.493734741E-1,1.792853065E1
1.218862737E1,-6.212081909E-1,-1.783645889E1,1.171463928E0,1.788567844E1
1.219859937E1,3.668870544E-1,-1.699221451E1,1.783840485E0,1.708953033E1
1.220857238E1,1.503623199E0,-1.628553406E1,1.388811951E0,1.641366202E1
1.221854537E1,3.002156982E0,-1.612072678E1,6.237528992E-1,1.640974851E1
1.222851837E1,3.961811371E0,-1.609258530E1,-1.134490814E0,1.661187287E1
1.223849137E1,3.967649231E0,-1.621637787E1,-3.825295258E0,1.712734759E1
1.224846337E1,4.082759857E0,-1.638372986E1,-4.781057739E0,1.754861947E1
1.225843637E1,4.869224396E0,-1.535042862E1,-1.828896790E0,1.620771016E1
1.226840937E1,5.276976471E0,-1.438269104E1,1.011296997E0,1.535353392E1
1.227838237E1,3.362906799E0,-1.284643570E1,3.623963928E-1,1.328425321E1
1.228835537E1,1.105900269E0,-1.153531219E1,-2.166145477E0,1.178891976E1
1.229832837E1,8.532257080E-2,-1.090167984E1,-2.672692108E0,1.122484683E1
1.230830038E1,6.595285034E-1,-1.030367340E1,-1.211580505E0,1.039560439E1
1.231827337E1,1.227746887E0,-9.808802490E0,3.112028503E-1,9.890238416E0
1.232824637E1,1.296304321E0,-9.252110138E0,1.568737793E-1,9.343797744E0
1.233821938E1,8.904981995E-1,-8.248147888E0,8.592132568E-2,8.296524158E0
1.234819237E1,8.846603394E-1,-6.527326355E0,2.658471680E-1,6.592365886E0
1.235816537E1,3.849993896E-1,-5.447022858E0,6.735992432E-2,5.461027367E0
1.236813737E1,-4.999603271E-1,-5.402415619E0,-3.379971313E-1,5.436018479E0
1.237811037E1,-3.397933960E-2,-4.103865967E0,-4.441264343E-1,4.127967873E0
1.238808337E1,1.078357544E0,-2.148332520E0,-1.227447510E-2,2.403817437E0
1.239805637E1,1.228794708E0,-1.323098602E0,3.153941345E-1,1.833030225E0
1.240802938E1,1.227746887E0,-1.383423157E0,6.129753113E-1,1.948579170E0
1.241800237E1,1.640887756E0,-1.964814148E0,7.140151978E-1,2.657597593E0
1.242797437E1,2.312391357E0,-2.321821747E0,2.546205139E-1,3.286767655E0
1.243794738E1,2.368674316E0,-2.245330811E0,-4.805007935E-2,3.264113551E0
1.244792037E1,2.210004272E0,-1.811083832E0,-5.002597046E-1,2.900759091E0
1.245789337E1,1.947001190E0,-1.465901642E0,-1.265019379E0,2.745897902E0
1.246786637E1,1.657203827E0,-1.754501495E0,-2.016007690E0,3.144660082E0
1.247783937E1,1.420096893E0,-2.227517853E0,-2.768941956E0,3.826950552E0
1.248781137E1,1.143621826E0,-2.870879974E0,-3.333118744E0,4.545272629E0
1.249778437E1,6.834786987E-1,-3.616928558E0,-4.313430176E0,5.670537471E0
1.250775737E1,1.393601990E-1,-4.242477722E0,-6.103707275E0,7.434600258E0
1.251773037E1,2.264790344E-1,-4.814737701E0,-8.647667084E0,9.900259485E0
1.252770337E1,5.421725464E-1,-5.914051666E0,-1.084883972E1,1.236799424E1
1.253767638E1,5.263055420E-1,-7.594157867E0,-1.235994736E1,1.451607832E1
1.254764837E1,6.276448059E-1,-9.659263458E0,-1.294358368E1,1.616266275E1
1.255762137E1,1.674567719E0,-1.166643951E1,-1.131976044E1,1.634157166E1
1.256759437E1,2.835403748E0,-1.300016602E1,-9.104367371E0,1.612244820E1
1.257756737E1,3.914360046E0,-1.299223251E1,-7.455546112E0,1.548242514E1
1.258754037E1,4.757855988E0,-1.113279922E1,-6.591991882E0,1.378516482E1
1.259751337E1,4.515210571E0,-8.562943268E0,-6.477629700E0,1.164778135E1
1.260748537E1,2.982847137E0,-6.839127960E0,-6.361620941E0,9.805165440E0
1.261745837E1,1.617835693E0,-5.389392700E0,-6.648424530E0,8.710022660E0
1.262743137E1,1.236129456E0,-4.490511932E0,-7.511230316E0,8.838059420E0
1.263740438E1,1.994003448E0,-5.587281189E0,-6.844217377E0,9.057431884E0
1.264737737E1,3.015179901E0,-8.769813080E0,-2.841091919E0,9.699109989E0
1.265735037E1,4.604275360E0,-1.148307083E1,8.599617004E-1,1.240160479E1
1.266732237E1,7.242988129E0,-1.339848770E1,1.179547119E0,1.527650749E1
1.267729537E1,8.246800690E0,-1.543634995E1,-1.594334564E0,1.757363150E1
1.268726837E1,5.257217560E0,-1.725866043E1,-5.124144287E0,1.875517398E1
1.269724137E1,1.029708710E0,-1.785846313E1,-9.011710052E0,2.002987578E1
1.270721437E1,-4.026626587E-1,-1.551269119E1,-6.586752777E0,1.685796659E1
1.271718737E1,1.860780487E0,-9.719887390E0,1.155596924E-1,9.897073756E0
1.272715937E1,3.319347382E0,-4.485871582E0,3.728746033E-1,5.592865666E0
1.273713238E1,4.795128479E0,-2.937341766E0,-9.806108093E-1,5.708137292E0
1.274710537E1,5.598956909E0,-2.994373169E0,-9.509724426E-1,6.420197640E0
1.275707837E1,4.243824921E0,-4.507875824E0,3.168910217E-1,6.199307568E0
1.276705138E1,1.581611023E0,-7.809410248E0,1.990859985E-1,7.970446479E0
1.277702392E1,-3.038681030E-1,-1.068193680E1,5.984555054E-1,1.070300232E1
1.278699592E1,-3.543132019E-1,-1.119417160E1,1.979184265E0,1.137331025E1
1.279696892E1,6.047424316E-2,-1.138921600E1,2.212998047E0,1.160238159E1
1.280694192E1,-2.148033142E-1,-1.266171982E1,6.783892822E-1,1.268169946E1
1.281691492E1,-1.585802307E0,-1.414064438E1,-2.523901520E0,1.445138994E1
1.282688792E1,-2.125430145E0,-1.495779510E1,-4.293820953E0,1.570636769E1
1.283686092E1,-1.885479126E0,-1.443852493E1,-3.164419556E0,1.490099275E1
1.284683292E1,-1.284329224E0,-1.258178604E1,-1.924697571E0,1.279278321E1
1.285680592E1,-2.483335876E-1,-1.019799316E1,-1.430874481E0,1.030088035E1
1.286677892E1,3.347039795E-1,-8.428672485E0,-9.614506531E-1,8.489931329E0
1.287675192E1,1.120120697E0,-7.792944489E0,-1.174158325E0,7.960106906E0
1.288672492E1,2.115251312E0,-7.990982666E0,-1.687440948E0,8.436678792E0
1.289669792E1,2.616109772E0,-8.187074890E0,-1.144220581E0,8.670724672E0
1.290666992E1,2.054477692E0,-8.494834900E0,-1.814227295E-1,8.741625293E0
1.291664292E1,1.366358643E0,-8.937763824E0,5.225633240E-1,9.056689823E0
1.292661592E1,1.260977783E0,-9.314380646E0,4.073030090E-1,9.408169191E0
1.293658892E1,9.618997192E-1,-9.428742828E0,-3.993695068E-1,9.486091840E0
1.294656192E1,5.038522339E-1,-9.344318390E0,-7.414082336E-1,9.387216809E0
1.295653492E1,2.731819153E-1,-9.082961884E0,-1.121617584E0,9.156028120E0
1.296650692E1,4.123924255E-1,-9.189390564E0,-1.375190277E0,9.300866344E0
1.297647992E1,8.812174988E-1,-9.039552155E0,-1.711091766E0,9.242179530E0
1.298645292E1,1.175655212E0,-8.541837158E0,-1.604663086E0,8.770409958E0
1.299642592E1,1.654808807E0,-7.889643402E0,-1.304387512E0,8.166167521E0
1.300639892E1,2.519560547E0,-7.628735962E0,-1.437311096E0,8.161596713E0
1.301637192E1,3.361409912E0,-7.531587982E0,-1.709445190E0,8.422950611E0
1.302634392E1,3.492387543E0,-7.536078644E0,-1.226549377E0,8.396051182E0
1.303631692E1,2.882106628E0,-7.811805267E0,-4.532574463E-1,8.338841794E0
1.304628992E1,1.867366791E0,-8.171806641E0,-9.086105347E-2,8.382943292E0
1.305626292E1,8.906478882E-1,-8.839268646E0,-8.262817383E-2,8.884410576E0
1.306623592E1,1.068777466E-1,-9.667795715E0,-1.624122620E-1,9.669750493E0
1.307620892E1,-3.121009827E-1,-1.044438080E1,-4.481680298E-1,1.045864962E1
1.308618192E1,-3.540138245E-1,-1.122620499E1,-9.705816650E-1,1.127364329E1
1.309615392E1,-3.071612549E-1,-1.144280457E1,-2.179318085E0,1.165253413E1
1.310612692E1,-2.082170105E-1,-1.074495575E1,-4.030069427E0,1.147775623E1
1.311609992E1,-1.438508606E-1,-1.011641281E1,-5.305417328E0,1.142409534E1
1.312607292E1,-3.438349915E-1,-1.042132874E1,-3.950734406E0,1.115036401E1
1.313604592E1,-7.542814636E-1,-1.107337280E1,-1.017284546E0,1.114555488E1
1.314601892E1,-1.384470978E0,-1.158201508E1,7.116201782E-1,1.168615576E1
1.315599092E1,-1.725761261E0,-1.158815231E1,6.448590088E-1,1.173368523E1
1.316596392E1,-1.588047638E0,-1.089045319E1,-3.971241760E-1,1.101279136E1
1.317593692E1,-1.006207581E0,-1.055859329E1,-1.889071655E0,1.077334385E1
1.318590992E1,-2.528242493E-1,-1.061053528E1,-3.016676788E0,1.103393483E1
1.319588292E1,7.367678833E-1,-1.042492126E1,-2.754571838E0,1.080784328E1
1.320585592E1,1.294208679E0,-1.003228775E1,-1.941911774E0,1.030013568E1
1.321582792E1,9.716294861E-1,-1.028511200E1,-2.623294830E0,1.065876487E1
1.322580092E1,2.079176331E-1,-1.118159775E1,-2.549348602E0,1.147042005E1
1.323577392E1,1.038839722E-1,-1.243389359E1,-2.464774475E0,1.267626186E1
1.324574692E1,-2.246827698E-1,-1.335417984E1,-2.490071869E0,1.358620843E1
1.325571992E1,-9.325607300E-1,-1.308608734E1,-2.242037659E0,1.330947348E1
1.326569292E1,-9.461824036E-1,-1.265393600E1,-2.875370636E0,1.301096130E1
1.327566492E1,4.995112610E-1,-1.366328705E1,-2.897075500E0,1.397597835E1
1.328563792E1,1.782792664E0,-1.516406616E1,-1.761237488E0,1.536974983E1
1.329561092E1,1.711241455E0,-1.579066315E1,-2.059716797E-1,1.588445197E1
1.330558392E1,1.701960754E0,-1.549652481E1,4.068539429E-1,1.559501464E1
1.331555692E1,1.897903290E0,-1.562660431E1,-1.342707825E-1,1.574200838E1
1.332552992E1,2.518961792E0,-1.609692627E1,-7.318281555E-1,1.630925431E1
1.333550192E1,2.567910004E0,-1.616099304E1,-8.572673035E-1,1.638617604E1
1.334547492E1,2.315235443E0,-1.563334030E1,-6.948550415E-1,1.581911716E1
1.335544792E1,2.229763184E0,-1.446846268E1,-6.743476868E-1,1.465479447E1
1.336542092E1,1.989363098E0,-1.325164307E1,-1.459764404E0,1.347941103E1
1.337539392E1,2.119891663E0,-1.303579193E1,-1.509011993E0,1.329296540E1
1.338536692E1,2.374961243E0,-1.314296906E1,9.505233765E-2,1.335616380E1
1.339533892E1,2.323468323E0,-1.334579727E1,1.655856628E0,1.364736865E1
1.340531192E1,1.478176117E0,-1.283595749E1,-1.723066864E0,1.303517429E1
1.341528492E1,1.520837402E-1,-1.243853394E1,-2.891836395E0,1.277117746E1
1.342525792E1,-2.820135498E-1,-1.169652695E1,-2.409689026E0,1.194549603E1
1.343523092E1,2.634521484E-2,-1.041683807E1,-6.662644958E-1,1.043815682E1
1.344520392E1,7.497908020E-1,-9.708660736E0,-1.359173584E-1,9.738519039E0
1.345517592E1,1.003662872E0,-8.789871368E0,3.951782227E-2,8.847075194E0
1.346514892E1,8.111631775E-1,-7.791746979E0,-2.080673218E-1,7.836619086E0
1.347512192E1,3.812571716E-1,-6.407725067E0,4.191284180E-3,6.419058742E0
1.348509492E1,1.227447510E-2,-5.452261963E0,1.097667389E0,5.561671050E0
1.349506792E1,3.860472107E-1,-4.623734894E0,8.033793640E-1,4.708861351E0
1.350504092E1,3.643423462E-1,-3.298091583E0,4.819976807E-2,3.318505184E0
1.351501292E1,9.535171509E-1,-2.561024323E0,2.227368164E-1,2.741833734E0
1.352498592E1,1.647923126E0,-1.917213135E0,8.934919739E-1,2.681358749E0
1.353495892E1,2.216590576E0,-1.403930511E0,9.336085510E-1,2.784945168E0
1.354493192E1,2.562670898E0,-1.298849030E0,6.854246521E-1,2.953658391E0
1.355490492E1,2.646795959E0,-1.540596313E0,4.634362793E-1,3.097376154E0
1.356487792E1,2.596350861E0,-1.776505737E0,2.454895020E-1,3.155515096E0
1.357484992E1,2.492017822E0,-1.954785004E0,-2.317181396E-1,3.175693709E0
1.358482292E1,2.337239685E0,-2.125879211E0,-9.593550110E-1,3.301880344E0
1.359479592E1,2.113604736E0,-2.290836182E0,-1.965562592E0,3.684927638E0
1.360476892E1,1.586999817E0,-2.616409149E0,-3.132086792E0,4.378827803E0
1.361474192E1,9.539662170E-1,-3.444337463E0,-4.296215973E0,5.588468823E0
1.362471492E1,7.092251587E-1,-4.336931305E0,-5.531746674E0,7.064856313E0
1.363468692E1,6.222560120E-1,-4.864134979E0,-7.218439178E0,8.726561511E0
1.364465992E1,6.039939880E-1,-5.992189178E0,-9.296417999E0,1.107675618E1
1.365463292E1,3.876937866E-1,-7.908803558E0,-1.174038574E1,1.416107826E1
1.366460592E1,6.994953918E-1,-9.685758362E0,-1.355925339E1,1.667802630E1
1.367457892E1,1.511856079E0,-1.205113953E1,-1.278206955E1,1.763227083E1
1.368455192E1,1.548978882E0,-1.458896210E1,-1.126976440E1,1.849985785E1
1.369452392E1,9.897418213E-1,-1.535686523E1,-9.756860504E0,1.822112032E1
1.370449692E1,1.733844452E0,-1.362032639E1,-7.832013245E0,1.580695856E1
1.371446992E1,3.166814575E0,-1.084045715E1,-6.476282501E0,1.301869659E1
1.372444292E1,3.113375702E0,-8.219557343E0,-6.483617249E0,1.092206591E1
1.373441592E1,2.618654480E0,-5.375771027E0,-7.563771057E0,9.641934351E0
1.374438892E1,1.410067749E0,-3.100502472E0,-7.996521149E0,8.691706226E0
1.375436092E1,-1.485510864E0,-1.970801697E0,-4.764292603E0,5.365564822E0
1.376433392E1,-1.905986481E0,-3.367098083E0,5.358856201E-1,3.906060338E0
1.377430692E1,2.172731781E0,-6.439908142E0,4.099225616E0,7.937054298E0
1.378427992E1,6.454278259E0,-9.617051239E0,5.439987488E0,1.279604807E1
1.379425292E1,9.119934998E0,-1.295002029E1,3.626808014E0,1.624899924E1
1.380422592E1,9.702523499E0,-1.757764709E1,-5.335953827E0,2.077462498E1
1.381419792E1,7.224875793E0,-2.682077591E1,-1.912228500E1,3.372261310E1
1.382417092E1,7.717501373E0,-2.911026489E1,-4.721631317E0,3.048378506E1
1.383414392E1,7.605234833E0,-1.515209106E1,8.264763336E0,1.886085294E1
1.384411692E1,3.921694794E0,-3.529809723E0,6.239325256E0,8.171194918E0
1.385408992E1,3.538940735E0,-3.365002441E-1,1.247206421E0,3.767340945E0
1.386406192E1,4.111949158E0,-1.667981415E0,-1.902843018E0,4.828156939E0
1.387403492E1,2.411784668E0,-5.539380798E0,-1.227447510E-2,6.041655036E0
1.388400792E1,3.472778320E-1,-9.417665863E0,2.862946472E0,9.849339811E0
1.389398092E1,2.430944824E-1,-1.129266678E1,4.434228973E0,1.213448823E1
1.390395392E1,8.768765259E-1,-1.153830597E1,3.910917206E0,1.221460971E1
1.391392692E1,8.113128662E-1,-1.270722519E1,2.668949890E0,1.300980761E1
1.392389892E1,-1.377136230E0,-1.533770508E1,-2.315684509E-1,1.540114688E1
1.393387192E1,-4.043391724E0,-1.707693832E1,-3.846251678E0,1.796564753E1
1.394384492E1,-2.750829620E0,-1.462503708E1,-2.735860748E0,1.513088587E1
1.395381792E1,-5.213658142E-1,-1.065184937E1,-9.617500305E-1,1.070787936E1
1.396379092E1,4.923262024E-1,-8.113128662E0,-6.616241455E-2,8.128322043E0
1.397376392E1,1.230740662E0,-7.450756073E0,-1.357976074E0,7.672847428E0
1.398373592E1,1.764380951E0,-7.875722351E0,-2.776725769E0,8.535235714E0
1.399370892E1,2.416724396E0,-8.432863770E0,-2.608176270E0,9.151848535E0
1.400368192E1,2.715054016E0,-8.600964203E0,-1.796713715E0,9.196536506E0
1.401365492E1,2.230062561E0,-8.582402802E0,-1.457219696E0,8.986339973E0
1.402362792E1,1.913620605E0,-8.834179230E0,-1.764081573E0,9.209595555E0
1.403360092E1,1.132395172E0,-9.277407532E0,-2.091001740E0,9.577311607E0
1.404357292E1,6.342311096E-1,-9.683213654E0,-1.704655151E0,9.852549160E0
1.405354592E1,6.840774536E-1,-9.777816925E0,-1.847308502E0,9.974277642E0
1.406351892E1,8.098159790E-1,-9.466165009E0,-2.404449921E0,9.800278634E0
1.407349192E1,1.281784515E0,-8.971892853E0,-2.599045258E0,9.428301499E0
1.408346492E1,1.537303162E0,-8.421337738E0,-2.237996063E0,8.848212062E0
1.409343792E1,1.531465302E0,-8.017776947E0,-1.713786163E0,8.340695184E0
1.410340992E1,1.343306580E0,-7.610473938E0,-1.376687164E0,7.849780486E0
1.411338292E1,1.018781433E0,-7.442972260E0,-6.282435608E-1,7.538596795E0
1.412335592E1,8.449928284E-1,-7.346572723E0,2.576142883E-1,7.399493819E0
1.413332892E1,1.097966766E0,-7.379354553E0,7.756869507E-1,7.500806283E0
1.414330192E1,1.622775421E0,-7.527696075E0,4.930746460E-1,7.716393645E0
1.415327492E1,1.973945160E0,-7.550448761E0,1.983375549E-1,7.806732593E0
1.416324692E1,1.951940918E0,-7.557334442E0,3.055146790E-1,7.811319763E0
1.417321992E1,1.681603088E0,-7.901618500E0,4.824467468E-1,8.092967239E0
1.418319292E1,1.266815643E0,-8.657546539E0,5.212161255E-1,8.765249580E0
1.419316592E1,8.866062927E-1,-9.541608124E0,2.333647156E-1,9.585552430E0
1.420313892E1,4.432283020E-1,-1.051039352E1,-4.808001709E-1,1.053071660E1
1.421311092E1,-1.309776306E-1,-1.119731506E1,-1.326541443E0,1.127637938E1
1.422308392E1,-8.680448914E-1,-1.136691238E1,-2.121687927E0,1.159576469E1
1.423305692E1,-1.277593231E0,-1.085063599E1,-2.416425018E0,1.118962268E1
1.424302992E1,-1.116079102E0,-1.009934830E1,-2.386487274E0,1.043732677E1
1.425300292E1,-7.430548096E-1,-9.697134705E0,-2.137255554E0,9.957630905E0
1.426297592E1,-2.791694641E-1,-9.582323456E0,-1.501826935E0,9.703316059E0
1.427294792E1,2.127076721E-1,-9.903256073E0,-8.577163696E-1,9.942605432E0
1.428292092E1,3.396437073E-1,-1.066786606E1,-5.674699402E-1,1.068834628E1
1.429289392E1,1.887574768E-1,-1.132215546E1,-2.903961182E-1,1.132745176E1
1.430286692E1,-5.269042969E-2,-1.197749268E1,-3.921844482E-1,1.198402753E1
1.431283992E1,-4.011657715E-1,-1.272952881E1,-1.024768982E0,1.277701018E1
1.432281292E1,-7.741900635E-1,-1.361104568E1,-1.453627167E0,1.371032337E1
1.433278492E1,-1.254092102E0,-1.388243134E1,-1.323098602E0,1.400161550E1
1.434275792E1,-1.692081299E0,-1.312036606E1,-8.285270691E-1,1.325494631E1
1.435273092E1,-1.485959930E0,-1.217493210E1,-3.460803223E-1,1.227015974E1
1.436270392E1,-6.334826660E-1,-1.183274368E1,-7.027885437E-1,1.187051116E1
1.437267692E1,1.089434509E0,-1.229647934E1,-2.081721039E0,1.251893902E1
1.438264992E1,3.088976440E0,-1.236339020E1,-3.495381317E0,1.321411681E1
1.439262192E1,5.278173981E0,-1.134880005E1,-4.424798584E0,1.327528627E1
1.440259492E1,6.798113251E0,-9.987231445E0,-4.298161926E0,1.282315607E1
1.441256792E1,7.189549255E0,-1.029169830E1,-3.626658325E0,1.306756760E1
1.442254092E1,7.150929565E0,-1.267564087E1,-2.869981842E0,1.483389567E1
1.443251392E1,7.778125305E0,-1.404424484E1,-1.312321014E0,1.610783142E1
1.444248692E1,7.757318573E0,-1.388512573E1,-3.035687256E-1,1.590801251E1
1.445245892E1,5.022505646E0,-1.411983765E1,-3.408412170E-1,1.499038195E1
1.446243192E1,2.211501160E0,-1.455423431E1,-4.436773682E-1,1.472797758E1
1.447240492E1,1.638642426E0,-1.478520401E1,-1.752854919E-1,1.487676482E1
1.448237792E1,1.639839935E0,-1.433598816E1,6.412664795E-1,1.444371331E1
1.449235092E1,8.228388977E-1,-1.355131989E1,7.990383911E-1,1.359977194E1
1.450232392E1,1.835632782E0,-1.240470428E1,7.415579224E-1,1.256169353E1
1.451229592E1,1.684297485E0,-1.192779602E1,2.379152527E0,1.227882497E1
1.452226892E1,1.310225372E0,-1.177975388E1,-1.264270935E0,1.191963392E1
1.453224192E1,1.993853760E0,-1.183633621E1,-2.091151428E0,1.218389191E1
1.454221492E1,6.762936401E-1,-1.223495728E1,-7.051835632E-1,1.227390877E1
1.455218792E1,-8.565188599E-1,-1.224842926E1,-1.637594604E0,1.238706422E1
1.456216092E1,-1.394799500E0,-1.224004669E1,-1.779948578E0,1.244718545E1
1.457213292E1,-5.523513794E-1,-1.184531754E1,-9.445358276E-1,1.189574661E1
1.458210592E1,1.440005493E-1,-1.015563126E1,-6.459068298E-1,1.017716945E1
1.459207892E1,8.364605713E-1,-8.464148712E0,-4.933740234E-1,8.519677085E0
1.460205192E1,1.642684021E0,-7.474406891E0,-1.978884888E-1,7.655346434E0
1.461202492E1,2.387385406E0,-6.820416870E0,2.537223816E-1,7.230634164E0
1.462199792E1,2.367177429E0,-5.941744080E0,6.730004883E-1,6.431234823E0
1.463196992E1,2.362088013E0,-4.735103302E0,2.040257263E-1,5.295497102E0
1.464194292E1,2.145338745E0,-3.756438446E0,-2.170486450E-1,4.331329847E0
1.465191592E1,2.020797729E0,-2.604883118E0,-6.117778015E-1,3.353104770E0
1.466188892E1,1.624571686E0,-2.076931000E0,-2.724334717E-1,2.650866941E0
1.467186192E1,1.537602539E0,-2.214494934E0,1.389111328E-1,2.699538050E0
1.468183392E1,1.499431915E0,-2.284848633E0,2.194436646E-1,2.741712032E0
1.469180692E1,1.297352142E0,-2.404898987E0,4.685256958E-2,2.732920943E0
1.470177992E1,1.310075684E0,-2.449506226E0,-4.128414917E-1,2.808347760E0
1.471175292E1,1.271905060E0,-2.607876892E0,-1.089135132E0,3.099190169E0
1.472172592E1,1.256038055E0,-2.989433441E0,-1.868863678E0,3.742592062E0
1.473169892E1,1.038839722E0,-3.041974182E0,-2.740351410E0,4.224017133E0
1.474167092E1,1.020877075E0,-2.993025970E0,-3.518433380E0,4.730725939E0
1.475164392E1,7.548802185E-1,-3.469634857E0,-4.414020996E0,5.664961742E0
1.476161692E1,3.725752258E-1,-4.569397888E0,-5.453908539E0,7.124838785E0
1.477159042E1,-2.520758057E-1,-5.653293915E0,-6.594985657E0,8.690058119E0
1.478156342E1,1.999841309E-1,-6.832092590E0,-7.442523193E0,1.010488171E1
1.479153642E1,-2.737806702E-1,-8.301437073E0,-1.009560608E1,1.307325803E1
1.480150842E1,1.700463867E-1,-1.029080017E1,-1.152094208E1,1.544867600E1
1.481148142E1,1.357676697E-1,-1.261950760E1,-1.231698669E1,1.763458438E1
1.482145442E1,4.420307922E-1,-1.466919525E1,-1.344519058E1,1.990361350E1
1.483142742E1,4.553530884E-1,-1.534788391E1,-1.305001236E1,2.015112179E1
1.484140042E1,8.222401428E-1,-1.325164307E1,-1.081201630E1,1.712255294E1
1.485137342E1,1.930834808E0,-1.066951263E1,-8.737630005E0,1.392525766E1
1.486134542E1,2.232307892E0,-8.724756775E0,-7.787106628E0,1.190561250E1
1.487131842E1,2.160606995E0,-6.902146912E0,-7.277266846E0,1.025994480E1
1.488129142E1,1.903591461E0,-5.131179657E0,-6.253395996E0,8.310091853E0
1.489126442E1,1.509161682E0,-3.833378448E0,-5.756579132E0,7.078881452E0
1.490123742E1,2.066602478E0,-3.796854401E0,-5.833219757E0,7.260399567E0
1.491121042E1,3.890110474E0,-6.527625732E0,-4.810396729E0,8.993485080E0
1.492118242E1,4.837939453E0,-1.087593338E1,-1.416354675E0,1.198739528E1
1.493115542E1,6.840475159E0,-1.430754730E1,2.050136719E0,1.599065573E1
1.494112842E1,9.565558319E0,-1.652937698E1,2.032323761E0,1.920548227E1
1.495110142E1,8.962761841E0,-1.893577286E1,-2.433938599E0,2.109072428E1
1.496107442E1,2.941533051E0,-1.996652939E1,-7.103478241E0,2.139566114E1
1.497104642E1,9.490264893E-2,-1.592029358E1,-1.836830292E0,1.602618793E1
1.498101942E1,3.007845154E0,-8.748557281E0,6.786437531E0,1.147345289E1
1.499099242E1,5.450316010E0,-3.553310852E0,4.483177185E0,7.901318895E0
1.500096542E1,5.611530762E0,-2.363285522E0,-5.421725464E-1,6.112965485E0
1.501093842E1,5.328020325E0,-3.140619049E0,-1.892215118E0,6.467748190E0
1.502091142E1,4.632117462E0,-5.340145111E0,7.539820862E-1,7.109300316E0
1.503088342E1,3.888463898E0,-8.581953735E0,3.927832031E0,1.020773951E1
1.504085642E1,3.729644165E0,-1.131467102E1,4.133055267E0,1.261008215E1
1.505082942E1,3.570974121E0,-1.298175430E1,3.733985138E0,1.397213105E1
1.506080242E1,2.868934021E0,-1.439182205E1,3.653602295E0,1.512296711E1
1.507077542E1,2.383792877E0,-1.500689301E1,2.616409149E0,1.541865438E1
1.508074842E1,1.790726166E0,-1.420875275E1,4.794529724E-1,1.432917409E1
1.509072042E1,3.351530457E-1,-1.293594955E1,-1.904489594E0,1.307968650E1
1.510069342E1,-1.196911011E0,-1.132035919E1,-4.147724762E0,1.211555813E1
1.511066642E1,-6.412664795E-1,-9.788893890E0,-2.355202332E0,1.008863937E1
1.512063942E1,-1.260379028E-1,-8.916807404E0,-4.875361633E-1,8.931015135E0
1.513061242E1,-7.075785828E-1,-8.690478058E0,-4.328997803E-1,8.729975862E0
1.514058542E1,-9.639953613E-1,-9.061706085E0,-1.129850464E0,9.182612172E0
1.515055742E1,-6.789880371E-1,-9.834998016E0,-8.113128662E-1,9.891735909E0
1.516053042E1,-2.552192688E-1,-1.007135651E1,-1.516346741E-1,1.007573083E1
1.517050342E1,-2.088157654E-1,-1.001567230E1,7.349716187E-2,1.001811846E1
1.518047642E1,-6.697073364E-1,-1.011356873E1,-1.282832336E-1,1.013652982E1
1.519044942E1,-9.852511597E-1,-1.032223480E1,-3.146456909E-1,1.037392178E1
1.520042242E1,-5.939648438E-1,-9.880503387E0,-1.484762421E0,1.000907892E1
1.521039442E1,-3.167413330E-1,-9.310189362E0,-2.644850006E0,9.683758701E0
1.522036742E1,-1.380130005E-1,-9.453591156E0,-2.923121338E0,9.896164494E0
1.523034042E1,5.236111450E-1,-9.502689056E0,-2.906505890E0,9.951032329E0
1.524031342E1,1.003962250E0,-9.269174652E0,-2.748733978E0,9.720137726E0
1.525028642E1,8.238867188E-1,-8.957223358E0,-2.169288940E0,9.252915979E0
1.526025942E1,2.891986084E-1,-8.578959961E0,-1.046773224E0,8.647422970E0
1.527023142E1,-3.022215271E-1,-8.209977264E0,-2.215393066E-1,8.218524454E0
1.528020442E1,-5.806425476E-1,-7.717651062E0,6.373745728E-1,7.765663528E0
1.529017742E1,-2.049238586E-1,-7.771539001E0,9.380992126E-1,7.830634864E0
1.530015042E1,6.198609924E-1,-8.348888397E0,6.544390869E-1,8.397407674E0
1.531012342E1,1.548230438E0,-8.662486267E0,4.001179504E-1,8.808846700E0
1.532009542E1,2.383044434E0,-8.686885529E0,2.489323425E-1,9.011262302E0
1.533006842E1,2.671644287E0,-8.672515411E0,-5.957611084E-2,9.074897028E0
1.534004142E1,2.544857941E0,-9.002429352E0,-6.167175293E-1,9.375520075E0
1.535001442E1,1.928739166E0,-9.672286377E0,-1.213227081E0,9.937055826E0
1.535998742E1,8.205935669E-1,-1.045216461E1,-1.239272919E0,1.055731577E1
1.536996042E1,-3.350033569E-1,-1.086096451E1,-8.128097534E-1,1.089648737E1
1.537993242E1,-7.776329041E-1,-1.089733887E1,-5.284011841E-1,1.093782040E1
1.538990542E1,-1.428030396E-1,-1.099987564E1,-6.447093201E-1,1.101967817E1
1.539987842E1,7.649093628E-1,-1.099583405E1,-8.328680420E-1,1.105382838E1
1.540985142E1,1.625769196E0,-1.041294617E1,-1.149908752E0,1.060164438E1
1.541982442E1,1.632954254E0,-1.043285477E1,-1.560953979E0,1.067462297E1
1.542979742E1,1.297651520E0,-1.094493988E1,-2.190245361E0,1.123711632E1
1.543977042E1,8.464897156E-1,-1.121452927E1,-2.696941681E0,1.156528019E1
1.544974242E1,2.727328491E-1,-1.160357025E1,-2.885399780E0,1.196004840E1
1.545971542E1,-3.101550293E-1,-1.247296234E1,-2.265688477E0,1.268086472E1
1.546968842E1,-7.349716187E-1,-1.322035812E1,-1.381776581E0,1.331267662E1
1.547966142E1,-6.267466736E-1,-1.324206299E1,1.896556091E-1,1.325824320E1
1.548963442E1,1.209484863E-1,-1.294642776E1,6.403683472E-1,1.296281960E1
1.549960642E1,1.098864899E0,-1.227731918E1,-1.316512299E0,1.239650253E1
1.550957942E1,2.727627869E0,-1.162946640E1,-3.235372009E0,1.237546260E1
1.551955242E1,4.347858582E0,-1.127081223E1,-4.095333710E0,1.275565916E1
1.552952542E1,5.342540131E0,-1.106888214E1,-4.094585266E0,1.295486455E1
1.553949842E1,5.813760223E0,-1.110600494E1,-4.404141541E0,1.328682116E1
1.554947142E1,5.865103455E0,-1.258762390E1,-4.049079895E0,1.446522596E1
1.555944342E1,5.246739349E0,-1.488175323E1,-3.902085571E0,1.625488003E1
1.556941642E1,4.801565094E0,-1.510029877E1,-1.866618347E0,1.595488371E1
1.557938942E1,3.978875885E0,-1.465452576E1,9.092092896E-1,1.521227268E1
1.558936242E1,2.997965698E0,-1.419977142E1,2.589315491E0,1.474197617E1
1.559933542E1,2.615061951E0,-1.345581848E1,2.112856293E0,1.386945427E1
1.560930842E1,2.908900909E0,-1.253179001E1,3.849993896E-1,1.287072997E1
1.561928042E1,2.910547485E0,-1.179726746E1,-9.880952454E-1,1.219110899E1
1.562925342E1,3.703598328E0,-1.106109833E1,-1.222956848E0,1.172860436E1
1.563922642E1,4.484524384E0,-1.042701691E1,-2.384541321E-1,1.135299524E1
1.564919942E1,5.662424927E0,-1.036250107E1,1.094823303E0,1.185930531E1
1.565917242E1,6.637646942E0,-1.035366943E1,1.412462769E0,1.237949428E1
1.566914542E1,5.866750031E0,-1.006462051E1,8.083190918E-2,1.164997321E1
1.567911742E1,4.123924255E0,-9.549391937E0,-1.424737244E0,1.049892918E1
1.568909042E1,2.650388489E0,-9.207802277E0,-1.282383270E0,9.667093087E0
1.569906342E1,1.715881805E0,-9.203311615E0,-9.695338440E-1,9.411970619E0
1.570903642E1,5.541476440E-1,-9.218579865E0,-6.491999817E-1,9.258010312E0
1.571900942E1,4.361929321E-1,-8.898994446E0,-7.729925537E-1,8.943147316E0
1.572898242E1,1.063238983E0,-8.192613373E0,-1.135538635E0,8.338995084E0
1.573895442E1,2.006277924E0,-7.124284973E0,-1.247505798E0,7.505788313E0
1.574892742E1,2.435734863E0,-5.700745239E0,-1.622925110E0,6.408212428E0
1.575890042E1,1.573078766E0,-4.698130188E0,-2.388732605E0,5.500277041E0
1.576887342E1,1.051712952E0,-3.863914948E0,-2.144141235E0,4.542387092E0
1.577884550E1,9.699829102E-1,-3.114722900E0,-1.493743744E0,3.587984945E0
1.578881850E1,1.031355286E0,-2.847977600E0,-3.691323853E-1,3.051381466E0
1.579879150E1,1.125060425E0,-2.745889893E0,2.924917603E-1,2.981815503E0
1.580876350E1,1.362915802E0,-2.693947906E0,2.260299683E-1,3.027537672E0
1.581873650E1,1.435664520E0,-2.609373779E0,-8.382568359E-3,2.978260298E0
1.582870950E1,1.050365753E0,-2.600542145E0,-1.454974365E-1,2.808426101E0
1.583868250E1,7.206015015E-1,-2.773133240E0,-2.812651062E-1,2.879000616E0
1.584865550E1,6.379733276E-1,-3.034040680E0,-5.659730530E-1,3.151624710E0
1.585862850E1,4.493655396E-1,-3.212020569E0,-9.942324829E-1,3.392271179E0
1.586860050E1,2.586621094E-1,-3.194956055E0,-1.482517090E0,3.531643697E0
1.587857350E1,3.996688843E-1,-3.236719208E0,-1.986668701E0,3.818761445E0
1.588854650E1,5.953120422E-1,-3.627107391E0,-2.935844879E0,4.704199147E0
1.589851950E1,1.670526123E-1,-4.462819519E0,-3.772904205E0,5.846321132E0
1.590849250E1,4.161346436E-2,-5.546116791E0,-4.547693024E0,7.172353517E0
1.591846550E1,2.634521484E-2,-6.726112976E0,-5.674699402E0,8.800199040E0
1.592843750E1,5.547463989E-1,-8.787925415E0,-6.477330322E0,1.093120235E1
1.593841050E1,-1.206491089E-1,-1.078761703E1,-9.095386047E0,1.411075068E1
1.594838350E1,-7.979905701E-1,-1.320134766E1,-1.246936981E1,1.817684110E1
1.595835650E1,-1.259331207E0,-1.591774887E1,-1.439945618E1,2.150127862E1
1.596832950E1,-1.143771515E0,-1.699535797E1,-1.427252014E1,2.222285394E1
1.597830250E1,-6.890171814E-1,-1.530597107E1,-1.373319168E1,2.057542342E1
1.598827450E1,3.456312561E-1,-1.235440887E1,-1.204679855E1,1.725909137E1
1.599824750E1,2.230212250E0,-9.629026337E0,-9.284891968E0,1.356101817E1
1.600822050E1,3.764671326E0,-7.040908356E0,-7.156617737E0,1.072214149E1
1.601819350E1,4.191134491E0,-4.692591705E0,-6.063890076E0,8.738237127E0
1.602816650E1,3.965104523E0,-3.182382202E0,-5.804629211E0,7.716432507E0
1.603813950E1,4.470154266E0,-3.959416351E0,-7.330406342E0,9.454846066E0
1.604811250E1,4.943769379E0,-8.979676666E0,-5.752986603E0,1.175467156E1
1.605808450E1,5.517675934E0,-1.413405807E1,-1.041833496E-1,1.517323959E1
1.606805750E1,1.063553329E1,-1.610800323E1,5.032534790E-1,1.930895131E1
1.607803050E1,1.687560699E1,-1.582569031E1,-2.156415710E0,2.323550546E1
1.608800350E1,1.676917831E1,-1.439541458E1,-3.416495361E0,2.236304413E1
1.609797650E1,9.728569336E0,-1.186807022E1,-5.646258545E0,1.635164786E1
1.610794950E1,3.782783661E0,-1.015637970E1,-5.028942261E0,1.194787684E1
1.611792150E1,9.395960999E-1,-8.394992523E0,3.884122925E0,9.297588461E0
1.612789450E1,2.387385406E0,-5.455405426E0,7.290888519E0,9.413719395E0
1.613786750E1,3.731889496E0,-3.977828064E0,4.432881775E0,7.028552920E0
1.614784050E1,3.003204803E0,-5.733377380E0,1.648521881E0,6.678957978E0
1.615781350E1,1.354982300E0,-8.550968170E0,1.560953979E0,8.797250196E0
1.616778650E1,6.423143005E-1,-1.078237793E1,3.745660858E0,1.143250702E1
1.617775850E1,1.087189178E0,-1.185489761E1,5.240452423E0,1.300703346E1
1.618773150E1,1.773062897E0,-1.305689804E1,4.510270844E0,1.392727115E1
1.619770450E1,1.173110504E0,-1.569231766E1,2.899620209E0,1.600102556E1
1.620767750E1,-2.546205139E-1,-1.768647079E1,1.508562927E0,1.775251652E1
1.621765050E1,-5.998027039E-1,-1.601729187E1,3.511697388E-1,1.603236484E1
1.622762350E1,-3.496728516E-1,-1.212119385E1,-4.222718811E-1,1.213358665E1
1.623759650E1,3.363505554E-1,-9.155111847E0,-9.497749329E-1,9.210389625E0
1.624756850E1,1.259480896E0,-7.576793976E0,-9.810598755E-1,7.743163279E0
1.625754150E1,1.897005157E0,-7.179071045E0,-9.436376953E-1,7.485194836E0
1.626751450E1,1.835034027E0,-7.551496582E0,-6.541397095E-1,7.798740236E0
1.627748750E1,1.788780212E0,-8.166567535E0,-1.722917175E-1,8.361952188E0
1.628746050E1,2.057770844E0,-8.436755676E0,-9.276210022E-1,8.733484294E0
1.629743350E1,2.643652496E0,-8.088280334E0,-2.590513000E0,8.894938724E0
1.630740550E1,3.248843994E0,-7.977660370E0,-1.575473785E0,8.756721414E0
1.631737850E1,2.580783234E0,-8.459957428E0,4.930746460E-1,8.858580269E0
1.632735150E1,1.558858337E0,-8.984766083E0,1.190773773E0,9.196412510E0
1.633732450E1,9.969268799E-1,-9.177565155E0,1.261277161E0,9.317316430E0
1.634729750E1,6.878196716E-1,-9.164093170E0,1.045575714E0,9.249158238E0
1.635727050E1,3.338058472E-1,-9.317075043E0,1.048270111E0,9.381800676E0
1.636724250E1,-1.996847534E-1,-9.630523224E0,1.061891785E0,9.690947618E0
1.637721550E1,-6.939569092E-1,-9.985435181E0,9.015751648E-1,1.005004128E1
1.638718850E1,-1.237027588E0,-9.953252106E0,5.885760498E-1,1.004708348E1
1.639716150E1,-1.714684296E0,-9.752669220E0,2.344125366E-1,9.905031468E0
1.640713450E1,-2.083666992E0,-9.754166107E0,-1.039438477E0,1.002825293E1
1.641710750E1,-1.708996124E0,-9.436077576E0,-2.169738007E0,9.831988140E0
1.642708050E1,-1.055305481E0,-9.159003754E0,-1.933229828E0,9.420105996E0
1.643705250E1,1.255888367E-1,-9.145980835E0,-1.512005768E0,9.270970792E0
