"Time (s)","Acceleration x (m/s^2)","Acceleration y (m/s^2)","Acceleration z (m/s^2)","Absolute acceleration (m/s^2)"
-2.247958328E-3,-1.899100800E0,-9.240284729E-1,9.175918579E-2,2.113961261E0
7.726041717E-3,-1.719474335E0,-3.444337463E-1,2.393522644E-1,1.769891550E0
1.769904164E-2,-1.299896851E0,2.724334717E-1,2.380050659E-1,1.349295457E0
2.767304168E-2,-9.265731812E-1,6.954537964E-1,2.095642090E-2,1.158720421E0
3.764704172E-2,-5.424719238E-1,9.702822876E-1,-8.910969543E-1,1.424702526E0
4.762104165E-2,-2.577639771E-1,1.238823853E0,-2.767894135E0,3.043413338E0
5.759404169E-2,-4.150868225E-1,1.424288177E0,-4.257895660E0,4.508943262E0
6.756804173E-2,-7.716453552E-1,1.375190277E0,-3.146157532E0,3.519217536E0
7.754204166E-2,-3.405418396E-1,9.190887451E-1,-5.556445312E-1,1.126691489E0
8.751504170E-2,4.438270569E-1,5.912704468E-2,1.300345917E0,1.375273779E0
9.748904174E-2,2.652484131E-1,-8.116122437E-1,1.102756805E0,1.394684096E0
1.074630417E-1,4.161346436E-2,-1.115779724E0,-8.681945801E-2,1.119925753E0
1.174370417E-1,2.463876343E-1,-1.055754547E0,-9.298663330E-1,1.428277259E0
1.274100418E-1,2.549198914E-1,-1.020128632E0,-2.160157928E0,2.402483892E0
1.373840417E-1,4.737648010E-1,-8.990304565E-1,-3.276536407E0,3.430510119E0
1.473580417E-1,9.759704590E-1,-4.673281860E-1,-3.052901459E0,3.239000044E0
1.573310416E-1,1.293011169E0,-5.987548828E-4,-2.149979095E0,2.508842034E0
1.673050417E-1,1.295256500E0,2.305206299E-1,-1.720671844E0,2.165996482E0
1.772790417E-1,8.806187439E-1,2.634521484E-2,-1.483864288E0,1.725698893E0
1.872530417E-1,1.975891113E-2,-7.096742249E-1,-1.041983185E0,1.260855613E0
1.972260417E-1,-1.102008362E0,-1.558109894E0,-6.301895142E-2,1.909476436E0
2.072000417E-1,-1.710493011E0,-1.690584412E0,1.179397430E0,2.678589236E0
2.171740417E-1,-6.897656250E-1,-2.812201996E0,2.393522644E0,3.756754894E0
2.271470417E-1,1.342707825E0,-4.041146393E0,4.526137848E0,6.214471199E0
2.371210417E-1,2.954406281E0,-4.650229797E0,5.297783203E0,7.643275509E0
2.470950417E-1,5.336253204E0,-5.500312042E0,1.833537140E0,7.879777235E0
2.570690417E-1,1.118069962E1,-1.157138718E1,-1.513592468E1,2.209075058E1
2.670420416E-1,9.511520691E0,-1.768302795E1,2.517764282E0,2.023604804E1
2.770160417E-1,2.358046417E0,-2.332299957E1,1.722063950E1,2.908733602E1
2.869900417E-1,4.368964691E0,-3.495605850E1,8.110883331E0,3.614969304E1
2.969630416E-1,1.016102005E1,-4.212450165E1,-1.486394028E1,4.581109787E1
3.069370417E-1,7.647447052E0,-3.748879166E1,-2.066422852E1,4.348451778E1
3.169110417E-1,3.746109924E0,-3.700350082E1,-1.136077515E1,3.888906819E1
3.268850417E-1,3.984713745E0,-3.791600327E1,-1.325403809E1,4.036298766E1
3.368580417E-1,2.943029938E0,-3.435835144E1,-1.393003235E1,3.719144445E1
3.468320417E-1,3.994443512E0,-3.007051804E1,-7.389982452E0,3.122184291E1
3.568060417E-1,5.974376221E0,-2.553494980E1,-2.154769135E0,2.631292197E1
3.667790417E-1,6.191724243E0,-2.166789139E1,-5.774990845E-1,2.254259239E1
3.767530416E-1,5.287604370E0,-1.844075226E1,-6.843768311E-1,1.919605364E1
3.867270417E-1,4.583169250E0,-1.520987091E1,-7.637118530E-1,1.590373759E1
3.967010417E-1,3.951482849E0,-1.242625946E1,-7.719447327E-1,1.306223716E1
4.066740416E-1,3.090024261E0,-9.943971405E0,-1.317859497E0,1.049607407E1
4.166480417E-1,1.861379242E0,-7.677384796E0,-1.699416046E0,8.080531226E0
4.266220417E-1,1.716929626E-1,-6.316265259E0,-1.200503540E0,6.431632300E0
4.365950417E-1,-1.507814484E0,-5.945486298E0,-2.106120300E-1,6.137317758E0
4.465690417E-1,-2.203268280E0,-5.544320526E0,4.080514526E-1,5.979998930E0
4.565430417E-1,-1.903292084E0,-4.530179443E0,-1.689985657E-1,4.916666255E0
4.665170417E-1,-9.946815491E-1,-3.166066132E0,-7.827223206E-1,3.409695055E0
4.764900417E-1,-5.057981873E-1,-2.129771118E0,-8.068222046E-1,2.332963543E0
4.864640418E-1,-9.265731812E-2,-1.091230774E0,-8.601113892E-1,1.392537821E0
4.964380417E-1,4.938230896E-1,-1.055305481E-1,-1.138233032E0,1.245219810E0
5.064110417E-1,1.286724243E0,6.596781921E-1,-1.802102509E0,2.310499523E0
5.163850416E-1,2.042203217E0,1.334474945E0,-3.162922668E0,3.994433272E0
5.263590417E-1,2.482587433E0,1.855391693E0,-4.644391937E0,5.583555781E0
5.363330417E-1,1.887574768E0,1.948348389E0,-5.516777802E0,6.147669254E0
5.463063751E-1,7.616162109E-1,1.540446625E0,-4.975952454E0,5.264326916E0
5.562803750E-1,5.598358154E-2,3.580554199E-1,-2.531086578E0,2.556899903E0
5.662543750E-1,-1.228794708E0,-1.307081909E0,5.812413025E-1,1.885799831E0
5.762273751E-1,-2.226619720E0,-2.411335602E0,2.387235718E0,4.058481137E0
5.862013750E-1,-2.531685333E0,-2.684966583E0,2.681523743E0,4.561693300E0
5.961753750E-1,-1.773961029E0,-2.243983612E0,1.799557800E0,3.379468665E0
6.061493750E-1,-7.536827087E-1,-1.518292694E0,1.010398865E0,1.973361649E0
6.161223750E-1,-4.626878357E-1,-6.424639893E-1,-1.655557251E-1,8.088564205E-1
6.260963751E-1,-5.457650757E-1,3.442840576E-3,-2.258353729E0,2.323366725E0
6.360703750E-1,-2.233355713E-1,4.766088867E-1,-3.511847076E0,3.551070922E0
6.460433750E-1,7.625143433E-1,8.396040344E-1,-2.027234344E0,2.322938257E0
6.560173751E-1,1.463806000E0,1.238374786E0,-1.309776306E-1,1.921836428E0
6.659913750E-1,1.637145538E0,1.727108459E0,7.176077271E-1,2.485580414E0
6.759653750E-1,1.436263275E0,1.981579285E0,-4.558021545E-1,2.489430509E0
6.859383751E-1,1.049766998E0,8.405021667E-1,-1.963017883E0,2.379473440E0
6.959123750E-1,4.912783813E-1,-1.350042572E0,-3.543581085E0,3.823733294E0
7.058863750E-1,4.357438660E-1,-3.637585602E0,-4.049229584E0,5.460600878E0
7.158593751E-1,1.630409546E0,-6.055657196E0,-1.635648651E0,6.481092954E0
7.258333750E-1,2.765648804E0,-8.457861786E0,2.502795410E0,9.243820864E0
7.358073751E-1,3.463198242E0,-9.899663544E0,5.763614502E0,1.196730264E1
7.457813750E-1,3.705244904E0,-1.151600235E1,2.533182220E0,1.235978002E1
7.557543750E-1,4.867877197E0,-1.631397491E1,-2.227817230E0,1.716989154E1
7.657283751E-1,4.661157074E0,-2.034883438E1,3.903133392E0,2.123760571E1
7.757023750E-1,4.443210297E0,-2.321237961E1,7.589966583E0,2.482265654E1
7.856753750E-1,6.954687653E0,-2.878124908E1,-1.555116119E0,2.965040245E1
7.956493751E-1,9.905950470E0,-3.521951065E1,-7.014263763E0,3.725240504E1
8.056233750E-1,8.569529572E0,-3.823513962E1,-3.307072906E0,3.932301451E1
8.155973750E-1,8.777596893E0,-3.869094177E1,-6.592291260E0,4.021807413E1
8.255703751E-1,1.049692154E1,-3.629607193E1,-1.409139679E1,4.032564523E1
8.355443750E-1,8.570727081E0,-3.324092514E1,-1.366762802E1,3.694889068E1
8.455183750E-1,5.869145050E0,-3.002471329E1,-7.843239899E0,3.158237932E1
8.554913750E-1,4.928950195E0,-2.691537918E1,-3.592080231E0,2.759773952E1
8.654653750E-1,3.778742065E0,-2.278277298E1,-9.964778137E-1,2.311550571E1
8.754393751E-1,2.589914246E0,-1.875464951E1,7.288343811E-1,1.894665494E1
8.854133750E-1,7.185058594E-1,-1.549607574E1,1.655407562E0,1.560080089E1
8.953863750E-1,-5.382806396E-1,-1.263148270E1,1.508413239E0,1.273261213E1
9.053603751E-1,-1.712139587E0,-9.947264557E0,7.964936829E-1,1.012491463E1
9.153343750E-1,-2.402653656E0,-7.954308929E0,3.158432007E-2,8.309318426E0
9.253073750E-1,-2.567910004E0,-6.551575928E0,-4.748126221E-1,7.052854454E0
9.352813751E-1,-2.407593384E0,-5.323529663E0,-7.333250427E-1,5.888483641E0
9.452553750E-1,-1.678459625E0,-4.085603943E0,-8.550219727E-1,4.498938638E0
9.552293750E-1,-9.642947388E-1,-2.988235931E0,-1.168470154E0,3.350334435E0
9.652023751E-1,-3.686833191E-1,-2.183509369E0,-1.476230164E0,2.661371085E0
9.751763750E-1,4.737648010E-1,-1.280587006E0,-1.885628815E0,2.328079078E0
9.851503751E-1,1.514849854E0,-3.603007507E-1,-2.408790894E0,2.868250386E0
9.951233750E-1,2.415077820E0,3.938310242E-1,-3.300336914E0,4.108518893E0
1.005097375E0,2.711162109E0,7.903564453E-1,-4.521946564E0,5.331328542E0
1.015071375E0,2.720293121E0,1.047222290E0,-5.650449829E0,6.358006957E0
1.025045375E0,2.120939484E0,1.144969025E0,-6.129753113E0,6.586593322E0
1.035018375E0,3.457809448E-1,6.734495544E-1,-6.062692566E0,6.109774129E0
1.044992375E0,-1.805096283E0,-4.195774841E-1,-5.145250397E0,5.468822497E0
1.054966375E0,-3.543730774E0,-1.168919220E0,-1.800156555E0,4.143062100E0
1.064939375E0,-3.841162262E0,-1.528471527E0,3.159330139E0,5.203087512E0
1.074913375E0,-2.963537292E0,-1.951192474E0,3.734284515E0,5.151173284E0
1.084887375E0,-1.574126587E0,-1.732048187E0,3.134481812E0,3.911884669E0
1.094861375E0,-4.077520752E-1,-1.040785675E0,2.804717560E0,3.019261030E0
1.104834375E0,4.355941772E-2,-5.505551147E-1,1.966760101E0,2.042829815E0
1.114808375E0,1.450483704E-1,-2.951861572E-1,1.369202728E0,1.408151273E0
1.124782375E0,1.269360352E-1,-3.779640198E-1,1.240620117E0,1.303114666E0
1.134755375E0,2.095642090E-3,-1.357676697E-1,1.562301178E0,1.568190748E0
1.144729375E0,2.571652222E-1,4.537065125E-1,2.049837341E0,2.115139872E0
1.154703375E0,1.497785339E0,1.020877075E0,1.859283600E0,2.596629822E0
1.164677375E0,2.574645996E0,9.313632202E-1,1.060095520E0,2.935990798E0
1.174650375E0,2.912792816E0,4.399351501E-1,7.089257812E-1,3.029930806E0
1.184624375E0,2.546205139E0,-3.019221497E-1,-5.237608337E-1,2.616991212E0
1.194598375E0,2.008074188E0,-1.482816467E0,-4.026027832E0,4.737088423E0
1.204571375E0,3.194506989E0,-2.887196045E0,-4.015399933E0,5.887632166E0
1.214545375E0,4.926106110E0,-3.409310303E0,5.411247253E-1,6.015208568E0
1.224519375E0,4.745731201E0,-4.007616119E0,2.616109772E0,6.739954149E0
1.234492375E0,6.020180969E0,-6.343508606E0,-8.619076538E-1,8.787807755E0
1.244466375E0,8.919651489E0,-9.950258331E0,-4.241579590E0,1.401994369E1
1.254440375E0,6.542145538E0,-1.482876343E1,-5.611830139E-1,1.621748499E1
1.264414375E0,4.159999237E0,-2.112841324E1,1.691482544E-2,2.153405967E1
1.274387375E0,6.087840271E0,-2.741069916E1,-9.544302521E0,2.965639793E1
1.284361375E0,6.341712341E0,-2.982308258E1,-1.356628876E1,3.337181087E1
1.294335375E0,2.714455261E0,-3.027319656E1,-8.878786469E0,3.166492613E1
1.304309375E0,1.012195129E0,-3.242616943E1,-1.023900787E1,3.401938103E1
1.314282375E0,9.714797974E-2,-3.353221939E1,-8.330925751E0,3.455175102E1
1.324256375E0,-1.868115234E0,-3.396781357E1,-4.229005737E0,3.428099623E1
1.334230375E0,-1.596280518E0,-3.485397079E1,-2.467768250E0,3.497766819E1
1.344203375E0,5.610333252E-1,-3.479394562E1,-2.291734314E0,3.487385061E1
1.354177375E0,4.298610992E0,-3.008907944E1,-1.218017120E0,3.041897966E1
1.364151375E0,7.930658112E0,-2.358884674E1,-2.142794037E0,2.497840257E1
1.374125375E0,1.003647903E1,-1.923844345E1,-3.916455688E0,2.204965403E1
1.384098375E0,1.005294479E1,-1.607103012E1,-4.004173279E0,1.937454804E1
1.394072375E0,9.190887451E0,-1.408166702E1,-4.163891144E0,1.732350276E1
1.404046375E0,7.255861359E0,-1.232207611E1,-5.242847443E0,1.523051322E1
1.414019375E0,4.108805695E0,-1.078402451E1,-5.910908203E0,1.296596717E1
1.423993375E0,1.350641327E0,-9.878557434E0,-4.627926178E0,1.099217129E1
1.433967375E0,-1.373394012E0,-9.367520142E0,-2.610870667E0,9.821063606E0
1.443940375E0,-2.737956390E0,-8.150999908E0,-1.516795807E0,8.731315721E0
1.453914375E0,-3.107388153E0,-6.575226746E0,-3.056643677E-1,7.278935265E0
1.463888375E0,-3.558849335E0,-5.775739288E0,1.390458527E0,6.925167711E0
1.473862375E0,-2.914439392E0,-4.679718475E0,1.827549591E0,5.808068482E0
1.483835375E0,-1.973645782E0,-3.347788239E0,1.344055023E0,4.112109881E0
1.493809375E0,-1.241069183E0,-2.185305634E0,2.061213684E-1,2.521566864E0
1.503783375E0,-3.601510620E-1,-8.975335693E-1,-1.166823578E0,1.515504061E0
1.513756375E0,7.098239136E-1,2.959346008E-1,-2.664010162E0,2.772792351E0
1.523730375E0,1.663490753E0,1.294657745E0,-4.817282410E0,5.258283939E0
1.533704375E0,2.013612671E0,2.011367340E0,-6.121520233E0,6.750795844E0
1.543679500E0,1.502874756E0,2.698139191E0,-5.127437439E0,5.985749938E0
1.553652500E0,5.189707947E-1,3.571273499E0,-1.753603363E0,4.012287358E0
1.563626500E0,-3.742218018E-2,3.010090485E0,9.958790588E-1,3.170775969E0
1.573600500E0,3.623963928E-1,6.032455444E-2,2.027683411E0,2.060696535E0
1.583573500E0,6.988966370E-1,-1.656455383E0,2.408341827E0,3.005397029E0
1.593547500E0,2.299218750E-1,-2.092348938E0,2.282303925E0,3.104786523E0
1.603521500E0,-1.187031555E-1,-2.055824890E0,1.728455658E0,2.688506161E0
1.613494500E0,5.837860107E-3,-1.411115570E0,9.533674622E-1,1.702994642E0
1.623468500E0,1.661544800E-2,-6.198609924E-1,-1.273851013E-1,6.330329273E-1
1.633442500E0,-5.254074097E-2,3.038681030E-2,-1.275946655E0,1.277389430E0
1.643416500E0,-5.104385376E-2,3.248245239E-1,-1.233285370E0,1.276365641E0
1.653389500E0,-3.695814514E-1,1.706451416E-1,-2.281256104E-1,4.666385193E-1
1.663363500E0,-8.795709229E-1,-3.824546814E-1,2.582130432E-1,9.932726551E-1
1.673337500E0,-1.434766388E0,-1.056053925E0,-1.453477478E-1,1.787436837E0
1.683310500E0,-1.905687103E0,-1.501377869E0,-5.471122742E-1,2.486988275E0
1.693284500E0,-2.323019257E0,-1.848655701E0,-9.035211182E-1,3.103271947E0
1.703258500E0,-2.549647980E0,-2.178120575E0,-1.268462219E0,3.585235064E0
1.713231500E0,-2.216740265E0,-2.612517242E0,-7.861651611E-1,3.515286532E0
1.723205500E0,-1.369202728E0,-3.552412720E0,2.682421875E-1,3.816583042E0
1.733179500E0,6.691085815E-1,-6.537056122E0,-5.959107971E-1,6.598175408E0
1.743153500E0,3.112627258E0,-8.799900513E0,1.958377533E0,9.537396922E0
1.753126500E0,5.036726074E0,-9.829908600E0,4.977599030E0,1.211495789E1
1.763100500E0,7.464527435E0,-1.241114090E1,1.768572235E0,1.459052556E1
1.773074500E0,1.286933807E1,-1.634076920E1,-7.432494049E0,2.208806393E1
1.783047500E0,1.334055817E1,-2.012998947E1,-7.503446503E0,2.528811337E1
1.793021500E0,8.981323242E0,-2.477228577E1,-8.726852417E-2,2.635029269E1
1.802995500E0,7.396568756E0,-2.966411316E1,-5.150190125E0,3.100311754E1
1.812969500E0,4.528981934E0,-2.744842072E1,-1.223914856E1,3.039283196E1
1.822942500E0,3.480562134E0,-2.563539093E1,-1.433164719E1,2.957505185E1
1.832916500E0,1.732197876E0,-2.763193909E1,-1.286125488E1,3.052763411E1
1.842890500E0,6.252497864E-1,-2.905637695E1,-1.105226669E1,3.109367424E1
1.852863500E0,9.710307312E-1,-3.009386948E1,-6.823859711E0,3.087311034E1
1.862837500E0,1.610950012E0,-3.031645660E1,-4.754113770E0,3.072920921E1
1.872811500E0,2.211052094E0,-2.802008194E1,-4.773872681E0,2.850971069E1
1.882785500E0,3.046614532E0,-2.482752090E1,-4.544848938E0,2.542328276E1
1.892758500E0,3.780089264E0,-2.165786224E1,-4.553680573E0,2.245190590E1
1.902732500E0,4.587510223E0,-1.838012833E1,-4.036056976E0,1.936915391E1
1.912706500E0,5.636678467E0,-1.526420792E1,-3.480711823E0,1.663981797E1
1.922679500E0,5.987249451E0,-1.263956589E1,-3.412004700E0,1.439609523E1
1.932653500E0,5.794450378E0,-1.073777069E1,-4.153862000E0,1.288914055E1
1.942627500E0,5.470074921E0,-8.825646973E0,-5.059329071E0,1.155034955E1
1.952600500E0,4.085304565E0,-7.249574432E0,-4.505031738E0,9.462629328E0
1.962574500E0,2.907104645E0,-5.891298981E0,-3.408861237E0,7.401283404E0
1.972548500E0,2.140399017E0,-4.668491821E0,-2.231559448E0,5.599641186E0
1.982522500E0,1.710193634E0,-3.520828400E0,-1.312171326E0,4.128291229E0
1.992495500E0,7.958949280E-1,-2.201172638E0,-8.497828674E-1,2.490128639E0
2.002469500E0,5.014572144E-2,-9.196875000E-1,-7.598199463E-1,1.194012580E0
2.012443500E0,-4.625381470E-1,-8.876541138E-2,-9.466314697E-1,1.057323023E0
2.022416500E0,-9.855505371E-1,3.516188049E-1,-8.270301819E-1,1.333763310E0
2.032390500E0,-1.118324432E0,5.510041809E-1,-6.033952332E-1,1.385041859E0
2.042364500E0,-1.380728760E0,5.206173706E-1,-4.016148376E-1,1.529296842E0
2.052338500E0,-1.458716583E0,6.656657410E-1,-8.768765259E-1,1.827533143E0
2.062311500E0,-1.314865723E0,1.154848480E0,-3.976630554E0,4.344667703E0
2.072285500E0,-5.504054260E-1,1.757046204E0,-6.678661652E0,6.927819206E0
2.082259500E0,2.496807861E-1,1.751807098E0,7.110214233E-1,1.907018634E0
2.092232500E0,-3.269201660E-1,9.740245056E-1,5.638474731E0,5.731317286E0
2.102206500E0,-1.165326691E0,-3.385958862E-1,3.254831543E0,3.473695704E0
2.112180500E0,-1.383123779E0,-7.294331360E-1,1.306034088E0,2.037358370E0
2.122153500E0,-1.334774323E0,-7.357200623E-1,6.210585022E-1,1.645788615E0
2.132127500E0,-1.297352142E0,-7.198530579E-1,3.186872864E-1,1.517521859E0
2.142101500E0,-1.137035522E0,-7.267387390E-1,-1.272354126E-1,1.355429019E0
2.152074500E0,-8.089178467E-1,-7.744894409E-1,-8.337661743E-1,1.396190535E0
2.162048500E0,-2.398013306E-1,-7.954458618E-1,-1.334774323E0,1.572215408E0
2.172022500E0,1.169967041E0,-9.728269958E-1,-1.841620331E0,2.388886913E0
2.181996500E0,3.094065857E0,-1.558259583E0,-3.202440491E0,4.717736910E0
2.191969500E0,4.381987610E0,-3.178490295E0,-5.562283173E0,7.761675725E0
2.201943500E0,3.783681793E0,-5.299130402E0,-7.618407440E0,1.002183431E1
2.211917500E0,2.479144592E0,-6.131549377E0,-3.348536682E0,7.413147347E0
2.221890500E0,4.360432434E-1,-4.968917084E0,7.552843781E0,9.051282775E0
2.231864500E0,1.978884888E-1,-5.003495178E0,8.253386993E0,9.653627335E0
2.241838500E0,3.338058472E-1,-5.983207855E0,2.926115112E0,6.668759422E0
2.251812500E0,2.426454163E-1,-7.977510681E0,2.505789185E-1,7.985132639E0
2.261785500E0,1.678309937E0,-1.250334915E1,-4.974904633E0,1.356097859E1
2.271759500E0,3.445834351E0,-1.466201019E1,7.090155945E0,1.664688045E1
2.281733500E0,2.278412018E0,-1.637160507E1,7.985743561E0,1.835736131E1
2.291706500E0,6.866670685E0,-1.843970444E1,2.168989563E-1,1.967792955E1
2.301680500E0,1.405232803E1,-1.807311676E1,-8.439899139E0,2.439953627E1
2.311654500E0,1.149579437E1,-1.866378845E1,-6.568341064E-1,2.192992747E1
2.321627500E0,8.433761902E0,-2.354169479E1,-4.033811646E0,2.533004876E1
2.331601500E0,7.750133514E0,-3.036735077E1,-1.357407257E1,3.415400428E1
2.341575500E0,3.333268433E0,-3.509751434E1,-1.290331741E1,3.754253310E1
2.351549500E0,-2.191442871E0,-3.604115204E1,-7.968978424E0,3.697663694E1
2.361522500E0,-3.950584717E0,-3.279949310E1,-1.952240295E0,3.309418543E1
2.371496500E0,-4.518054657E0,-2.919334213E1,2.284399567E0,2.962908240E1
2.381470500E0,-3.670517120E0,-2.699441483E1,1.898502045E0,2.730888935E1
2.391443500E0,-4.785548401E-1,-2.344394806E1,1.972298584E0,2.353163141E1
2.401417500E0,2.580184479E0,-2.152104675E1,1.470242615E0,2.172497224E1
2.411391500E0,6.325695648E0,-2.023866348E1,-5.313949585E-1,2.121085349E1
2.421364500E0,9.476792908E0,-1.727692245E1,-2.617307281E0,1.987842928E1
2.431338500E0,1.010189301E1,-1.406325531E1,-4.380341034E0,1.786087287E1
2.441312500E0,8.146060181E0,-1.188708069E1,-5.288053436E0,1.535006492E1
2.451286500E0,5.672603760E0,-1.012060410E1,-5.926326141E0,1.302790859E1
2.461259500E0,3.348985748E0,-7.873177643E0,-5.918542328E0,1.040345015E1
2.471233500E0,1.265618134E0,-5.419480133E0,-4.128115540E0,6.929205732E0
2.481207500E0,-3.793112183E-1,-3.535797272E0,-2.169438629E0,4.165597594E0
2.491180500E0,-2.182162170E0,-2.365530853E0,-1.191222839E0,3.431702174E0
2.501154500E0,-3.943249969E0,-1.445543976E0,-8.422984314E-1,4.283489740E0
2.511128500E0,-4.581223297E0,-6.592291260E-1,-1.995350647E-1,4.632710241E0
2.521101500E0,-3.705693970E0,-3.727249146E-2,3.725752258E-1,3.724562972E0
2.531075500E0,-2.638413391E0,3.281176758E-1,2.749781799E-1,2.672919645E0
2.541049500E0,-2.079775085E0,4.061054993E-1,-5.427713013E-1,2.187461261E0
2.551022625E0,-2.172582092E0,5.739065552E-1,-2.993774414E0,3.743282907E0
2.560995625E0,-2.561323700E0,8.397537231E-1,-5.593717804E0,6.209286938E0
2.570969625E0,-1.856439514E0,8.262817383E-1,-4.178560638E0,4.646447911E0
2.580943625E0,-2.983296204E-1,7.888595581E-1,2.490820312E-1,8.793985576E-1
2.590916625E0,8.170010376E-1,1.010249176E0,3.178190918E0,3.433510100E0
2.600890625E0,1.164278870E0,7.943980408E-1,1.756447449E0,2.252048217E0
2.610864625E0,3.622467041E-1,2.839595032E-1,-6.890171814E-1,8.286135108E-1
2.620837625E0,-1.901046753E-1,-6.361770630E-2,-1.416504364E0,1.430619311E0
2.630811625E0,-3.933819580E-1,-4.158352661E-1,-1.249751129E0,1.374607660E0
2.640785625E0,-6.373745728E-1,-6.782395935E-1,-9.924362183E-1,1.360582574E0
2.650759625E0,-4.989125061E-1,-6.506968689E-1,-5.818400574E-1,1.005414321E0
2.660732625E0,1.212478638E-2,-4.276606750E-1,-1.282832336E-1,4.466511519E-1
2.670706625E0,3.890409851E-1,-1.895059204E-1,1.038839722E-1,4.450362476E-1
2.680680625E0,6.744973755E-1,4.340972900E-3,6.406677246E-2,6.775471238E-1
2.690653625E0,8.848100281E-1,-5.837860107E-3,-7.214996338E-2,8.877660072E-1
2.700627625E0,8.957373047E-1,-1.959425354E-1,-4.131408691E-2,9.178483807E-1
2.710601625E0,7.934999084E-1,-5.659730530E-1,4.165837097E-1,1.059957352E0
2.720574625E0,9.547146606E-1,-1.141825562E0,1.163680115E0,1.889284813E0
2.730548625E0,1.467248840E0,-2.151625671E0,1.060394897E0,2.811894295E0
2.740522625E0,2.268382874E0,-3.725303192E0,-1.113983459E0,4.501600147E0
2.750495625E0,3.799698486E0,-4.853656769E0,-2.481539612E0,6.644827421E0
2.760469625E0,5.254373474E0,-5.592220917E0,7.668553162E-1,7.711643305E0
2.770443625E0,5.526507568E0,-7.089557190E0,2.299518127E0,9.278571586E0
2.780417625E0,5.638175354E0,-1.094898148E1,-3.941304016E-1,1.232171074E1
2.790390625E0,4.452940063E0,-1.673460022E1,3.382965088E-2,1.731694731E1
2.800364625E0,3.376977539E0,-2.478755402E1,4.408931580E0,2.540207647E1
2.810338625E0,7.636819153E0,-3.710543884E1,-3.743864594E0,3.806771756E1
2.820311625E0,9.630672913E0,-4.460199966E1,-1.875689484E1,4.933466670E1
2.830285625E0,2.738854523E0,-4.047418350E1,-1.828342941E1,4.449656892E1
2.840259625E0,2.498005371E0,-3.690365845E1,-1.388512573E1,3.950843903E1
2.850233625E0,7.188501434E0,-3.392230820E1,-1.143097916E1,3.651116036E1
2.860206625E0,8.723259888E0,-3.087689117E1,-7.611671448E0,3.297597935E1
2.870180625E0,8.982670441E0,-2.839939316E1,-4.279151459E0,3.009194306E1
2.880154625E0,8.447832642E0,-2.600287674E1,-2.963537292E0,2.750087323E1
2.890127625E0,7.385641479E0,-2.289623703E1,-2.835553436E0,2.422448624E1
2.900101625E0,6.760242004E0,-1.908216843E1,-2.686613159E0,2.042175100E1
2.910075625E0,6.087840271E0,-1.579709976E1,-1.996847534E0,1.704692231E1
2.920048625E0,4.715045013E0,-1.297711395E1,-2.114502869E0,1.396811578E1
2.930022625E0,3.018772430E0,-1.024619293E1,-1.669777679E0,1.081136504E1
2.939996625E0,1.430275726E0,-8.078700256E0,-8.863069153E-1,8.252068009E0
2.949969625E0,2.192939758E-1,-6.601272583E0,-4.659809875E-1,6.621331274E0
2.959943625E0,-7.815248108E-1,-5.633984070E0,7.138655090E-1,5.732552790E0
2.969917625E0,-1.356628876E0,-4.758903809E0,1.501377869E0,5.171241908E0
2.979891625E0,-1.597178650E0,-3.535198517E0,1.547931061E0,4.176685140E0
2.989864625E0,-1.352437592E0,-2.320474548E0,8.214916992E-1,2.808654158E0
2.999838625E0,-7.881111145E-1,-1.275647278E0,-2.314187622E-1,1.517217766E0
3.009812625E0,3.736230469E-1,-1.868115234E-1,-2.165696411E0,2.205614126E0
3.019785625E0,3.275787964E0,9.271719360E-1,-8.153843994E0,8.836040203E0
3.029759625E0,6.533463593E0,1.661544800E0,-1.242251724E1,1.413385341E1
3.039733625E0,4.027524719E0,1.574875031E0,-2.719694366E0,5.108612744E0
3.049706625E0,-7.508386230E-1,1.273701324E0,4.470453644E0,4.708612267E0
3.059680625E0,-2.500250702E0,1.686991882E-1,4.586163025E0,5.226146217E0
3.069654625E0,-2.623294830E0,-8.855584717E-1,2.730172577E0,3.888409942E0
3.079627625E0,-3.104095001E0,-9.069639587E-1,1.117126923E0,3.421397662E0
3.089601625E0,-2.801125031E0,-7.161108398E-1,7.993377686E-2,2.892318375E0
3.099575625E0,-2.345622253E0,-6.899153137E-1,-5.495072937E-1,2.505969904E0
3.109549625E0,-1.880240021E0,-7.132667542E-1,-6.527925110E-1,2.114282399E0
3.119522625E0,-1.391656036E0,-7.128176880E-1,-7.554789734E-1,1.736537952E0
3.129496625E0,-9.629475403E-1,-6.483018494E-1,-9.074130249E-1,1.473418356E0
3.139470625E0,-1.577719116E-1,-4.800517273E-1,-1.292861481E0,1.388103903E0
3.149443625E0,6.973997498E-1,-3.273692322E-1,-2.336191864E0,2.459945010E0
3.159417625E0,1.122964783E0,-8.517288208E-2,-3.803590393E0,3.966812852E0
3.169391625E0,1.034648438E0,9.595046997E-2,-3.885919189E0,4.022446001E0
3.179364625E0,4.760101318E-2,1.990859985E-1,-2.265538788E0,2.274767481E0
3.189338625E0,-9.286688232E-1,4.710704041E-1,-9.187893677E-1,1.388706956E0
3.199312625E0,-1.282982025E0,7.298822021E-1,-1.001417542E0,1.783706253E0
3.209286625E0,-1.341809692E0,2.722837830E-1,-2.001038818E0,2.424612972E0
3.219259625E0,-1.406475220E0,-6.191125488E-1,-4.127816162E0,4.404581610E0
3.229233625E0,-1.609153748E0,-1.723515930E0,-6.433471527E0,6.851966056E0
3.239207625E0,-3.342549133E-1,-4.332290955E0,-7.271279297E0,8.470653686E0
3.249180625E0,1.245859222E0,-7.031477966E0,4.225712585E-1,7.153489642E0
3.259154625E0,3.305276642E0,-6.542893982E0,1.133008896E1,1.349463713E1
3.269128625E0,4.914280701E0,-5.704487457E0,7.433990936E0,1.058090512E1
3.279101625E0,9.977351990E0,-6.863676910E0,-9.646390228E0,1.548258563E1
3.289075625E0,7.712711334E0,-1.194426178E1,-4.620591431E0,1.494995554E1
3.299049625E0,-2.352208557E0,-2.106419678E1,1.478969467E1,2.584508347E1
3.309022625E0,8.009843445E-1,-2.715473145E1,1.012704071E1,2.899272270E1
3.318996625E0,1.472577759E1,-3.208907043E1,-1.901899979E1,4.010335796E1
3.328970625E0,1.348725311E1,-3.768533295E1,-1.499282227E1,4.274195872E1
3.338944625E0,7.459737396E0,-4.288267502E1,-7.368726654E0,4.414600357E1
3.348917625E0,7.268884277E0,-3.935720627E1,-1.619976242E1,4.317706181E1
3.358891625E0,2.578388214E0,-3.325005615E1,-1.251667145E1,3.562136134E1
3.368865625E0,1.032552795E0,-2.986679169E1,-6.327791290E0,3.054721515E1
3.378838625E0,2.667153625E0,-2.700085144E1,-2.856210480E0,2.728218513E1
3.388812625E0,3.572471008E0,-2.521222092E1,-1.075064392E0,2.548674942E1
3.398786625E0,4.114793243E0,-2.213432144E1,-6.680607605E-1,2.252345476E1
3.408759625E0,5.607040100E0,-1.827325058E1,-1.573527832E0,1.917880537E1
3.418733625E0,6.783892822E0,-1.516167114E1,-1.995949402E0,1.672965295E1
3.428707625E0,6.707701263E0,-1.328262863E1,-2.627037048E0,1.511035417E1
3.438680625E0,5.807173920E0,-1.140044266E1,-2.626587982E0,1.306109973E1
3.448654625E0,4.429588623E0,-9.605974274E0,-2.596350861E0,1.089206293E1
3.458628625E0,2.496658173E0,-8.521629181E0,-2.347119141E0,9.184793639E0
3.468602625E0,8.794212341E-1,-7.555987244E0,-1.841470642E0,7.826706782E0
3.478575625E0,-2.713856506E-1,-6.433621216E0,-1.273401947E0,6.564044838E0
3.488549625E0,-1.416055298E0,-5.632487183E0,-1.025517426E0,5.897610572E0
3.498523625E0,-1.821262665E0,-4.607568512E0,-1.113684082E0,5.078087979E0
3.508496625E0,-1.753303986E0,-3.066223755E0,-1.000519409E0,3.671081866E0
3.518470625E0,-1.557511139E0,-1.346599731E0,-8.539741516E-1,2.229000591E0
3.528444625E0,-1.387464752E0,-1.528321838E-1,-1.006656647E0,1.720980453E0
3.538417625E0,-1.235979767E0,5.123844910E-1,-1.156345367E0,1.768422591E0
3.548390917E0,-5.258564758E-1,9.389973450E-1,-1.528621216E0,1.869471548E0
3.558364917E0,7.231462097E-1,1.360969849E0,-2.975213013E0,3.350682295E0
3.568337917E0,1.888472900E0,1.854343872E0,-4.285588074E0,5.036981857E0
3.578311917E0,2.176174622E0,2.329455872E0,-2.147883453E0,3.843891774E0
3.588285917E0,1.758692780E0,1.951491852E0,-4.340972900E-3,2.627040080E0
3.598259917E0,4.890330505E-1,-8.696914673E-2,2.282752991E-1,5.466503171E-1
3.608232917E0,-1.481918335E-2,-1.627864838E0,-1.520837402E-1,1.635020796E0
3.618206917E0,-6.268963623E-1,-1.598675537E0,-5.748046875E-2,1.718157887E0
3.628180917E0,-1.134341125E0,-1.283131714E0,2.269281006E-1,1.727614872E0
3.638153917E0,-9.976753235E-1,-1.037193146E0,2.050735474E-2,1.439286707E0
3.648127917E0,-8.111631775E-1,-7.590715027E-1,-9.304650879E-1,1.449117154E0
3.658101917E0,-7.515870667E-1,-3.990701294E-1,-1.839973755E0,2.027225569E0
3.668074917E0,-6.252497864E-1,-2.559677124E-1,-2.008822632E0,2.119392633E0
3.678048917E0,-4.204756165E-1,-3.011737061E-1,-1.535656586E0,1.620415531E0
3.688022917E0,-7.858657837E-2,-4.519102478E-1,-1.050964508E0,1.146701844E0
3.697995917E0,1.357676697E-1,-9.147477722E-1,-1.046623535E0,1.396644970E0
3.707969917E0,5.852828979E-2,-1.697021027E0,-1.702110443E0,2.404264105E0
3.717943917E0,1.526824951E-1,-2.465522919E0,-1.750908966E0,3.027837085E0
3.727917917E0,1.219963074E0,-3.755091248E0,-5.001100159E-1,3.979840475E0
3.737890917E0,3.026256866E0,-5.036875763E0,2.498753815E0,6.385304903E0
3.747864917E0,3.836521912E0,-5.057832184E0,4.839735718E0,7.982706846E0
3.757838917E0,4.847669220E0,-4.824168091E0,3.065475311E0,7.494640320E0
3.767811917E0,6.100563812E0,-5.192552032E0,6.074368286E-1,8.034205308E0
3.777785917E0,4.523443451E0,-6.114634552E0,4.186943207E0,8.682211111E0
3.787759917E0,1.556613007E0,-7.706274719E0,8.451724548E0,1.154302222E1
3.797732917E0,3.055895233E0,-1.244107864E1,4.139042816E0,1.346293463E1
3.807706917E0,6.248755646E0,-2.389690613E1,-6.422693939E0,2.552175674E1
3.817680917E0,3.135080566E0,-3.386842026E1,-5.044809265E0,3.438529804E1
3.827653917E0,9.123527527E-1,-3.920557159E1,-7.263944550E0,3.988325616E1
3.837627917E0,5.386249237E0,-4.020893509E1,-1.477966553E1,4.317648266E1
3.847601917E0,7.754175110E0,-3.484528885E1,-1.893188095E1,4.040714668E1
3.857574917E0,7.703879700E0,-2.958582596E1,-1.379665970E1,3.354129811E1
3.867548917E0,6.446195068E0,-2.614912262E1,-5.521418152E0,2.749210983E1
3.877522917E0,5.410498810E0,-2.486928406E1,-4.133204956E0,2.578445598E1
3.887496917E0,4.301754456E0,-2.402414154E1,-3.201392670E0,2.461530790E1
3.897469917E0,3.172951813E0,-2.339275452E1,-2.633773041E0,2.375342812E1
3.907443917E0,2.459535370E0,-2.276376251E1,-3.314257965E0,2.313487635E1
3.917417917E0,2.811902618E0,-2.031171158E1,-4.623285828E0,2.102016164E1
3.927390917E0,4.000580750E0,-1.701601501E1,-5.441933441E0,1.830748625E1
3.937364917E0,4.960983582E0,-1.413555496E1,-4.878654785E0,1.575520691E1
3.947338917E0,5.285359039E0,-1.188154221E1,-3.714076538E0,1.352406854E1
3.957311917E0,5.072202301E0,-1.010862900E1,-2.546953583E0,1.159304054E1
3.967285917E0,4.270768890E0,-8.403524780E0,-2.319127350E0,9.707576799E0
3.977259917E0,2.990331573E0,-6.720724182E0,-1.928290100E0,7.604506504E0
3.987232917E0,1.388512573E0,-5.293891296E0,-9.297166443E-1,5.551362469E0
3.997206917E0,7.469467163E-2,-4.444856873E0,-2.924917603E-1,4.455096334E0
4.007180917E0,-6.568341064E-1,-3.534899139E0,-9.430389404E-2,3.596642350E0
4.017154917E0,-9.752220154E-1,-2.075434113E0,-1.013392639E-1,2.295376741E0
4.027127917E0,-1.268013153E0,-6.792874146E-1,-1.353186035E-1,1.444852890E0
4.037101917E0,-1.357676697E0,2.230361938E-1,-5.583389282E-1,1.484847977E0
4.047075917E0,-1.140178986E0,6.716532898E-1,-1.364113312E0,1.900508192E0
4.057048917E0,-7.213499451E-1,1.003812561E0,-2.423610077E0,2.720638014E0
4.067022917E0,-2.556683350E-1,1.387614441E0,-3.916006622E0,4.162444955E0
4.076996917E0,5.044509888E-2,1.717229004E0,-4.053869934E0,4.402871972E0
4.086969917E0,4.790039062E-1,1.802551575E0,-2.626438293E0,3.221306417E0
4.096943917E0,6.276448059E-1,1.046922913E0,-2.036814423E0,2.374573347E0
4.106917917E0,-6.406677246E-2,4.535568237E-2,-1.510209503E0,1.512248139E0
4.116890917E0,-9.800120544E-1,-4.306544495E-1,-4.652325439E-1,1.167188160E0
4.126864917E0,-1.199904785E0,-5.216651917E-1,1.859133911E-1,1.321540712E0
4.136838917E0,-1.158890076E0,-4.740641785E-1,2.951861572E-1,1.286428358E0
4.146811917E0,-9.529183960E-1,-6.021977234E-1,-3.966751099E-2,1.127949059E0
4.156785917E0,-3.403921509E-1,-8.918453979E-1,-5.358856201E-1,1.094727559E0
4.166759917E0,-1.167572021E-1,-9.964778137E-1,-8.681945801E-1,1.326786383E0
4.176732917E0,-1.716929626E-1,-7.921527100E-1,-9.475296021E-1,1.246914887E0
4.186706917E0,-1.333726501E-1,-7.457492065E-1,-9.008267212E-1,1.177038200E0
4.196680917E0,-1.854643250E-1,-7.485932922E-1,-5.322930908E-1,9.370831700E-1
4.206654917E0,-2.119592285E-1,-7.897576904E-1,-2.508782959E-1,8.553267466E-1
4.216627917E0,-1.062789917E-2,-1.103954315E0,-7.387138367E-1,1.328354702E0
4.226601917E0,2.332150269E-1,-1.646276550E0,-2.802172852E-1,1.686160566E0
4.236575917E0,4.620890808E-1,-2.805915070E0,1.161584473E-1,2.846081250E0
4.246548917E0,8.351133728E-1,-4.666096802E0,-7.984396362E-1,4.807013580E0
4.256522917E0,1.105600891E0,-4.836442566E0,4.658312988E-1,4.983024064E0
4.266496917E0,2.525697784E0,-5.017715607E0,3.014880524E0,6.375431262E0
4.276469917E0,4.658762054E0,-6.481222229E0,2.106868744E0,8.255252956E0
4.286443917E0,5.918093262E0,-8.559051361E0,4.198768616E-1,1.041429233E1
4.296417917E0,4.536316681E0,-1.037357803E1,4.663851471E0,1.224503168E1
4.306390917E0,3.342249756E0,-1.342752731E1,6.185437317E0,1.515680567E1
4.316364917E0,5.693560181E0,-2.440479996E1,-1.446891174E0,2.510188006E1
4.326338917E0,9.198671265E0,-3.425701218E1,-1.193258606E1,3.742385665E1
4.336311917E0,9.178463287E0,-3.482493118E1,-6.918762360E0,3.667273228E1
4.346285917E0,7.797734528E0,-3.807003296E1,-1.026131149E1,4.019236976E1
4.356259917E0,6.716083832E0,-3.747831345E1,-1.803255112E1,4.212959364E1
4.366233917E0,4.964875488E0,-3.363325928E1,-1.588122482E1,3.752411785E1
4.376206917E0,4.756808167E0,-3.164718933E1,-8.819958801E0,3.319583543E1
4.386180917E0,4.009113007E0,-2.866389313E1,-4.484823761E0,2.928831508E1
4.396154917E0,2.396366730E0,-2.510713943E1,-2.835104370E0,2.538008749E1
4.406127917E0,1.619482269E0,-2.231005600E1,-2.450853424E0,2.250262216E1
4.416101917E0,1.811383209E0,-1.919084244E1,-2.523153076E0,1.944057211E1
4.426075917E0,2.886597290E0,-1.594618973E1,-3.165167999E0,1.651156259E1
4.436048917E0,3.497476959E0,-1.306692719E1,-3.121758270E0,1.388244596E1
4.446022917E0,3.152294769E0,-1.055245605E1,-2.478545837E0,1.128868817E1
4.455996917E0,2.181862793E0,-8.591683502E0,-2.194137268E0,9.131910479E0
4.465969917E0,1.037193146E0,-7.337142334E0,-1.749112701E0,7.613725927E0
4.475943917E0,3.035687256E-1,-6.169270935E0,-1.357077942E0,6.324058695E0
4.485917917E0,-1.374142456E-1,-4.844376068E0,-9.192384338E-1,4.932733670E0
4.495890917E0,-4.257147217E-1,-3.705544281E0,-1.767823792E-1,3.734105442E0
4.505864917E0,-6.747967529E-1,-2.915337524E0,3.043171692E-1,3.007848480E0
4.515838917E0,-8.327183533E-1,-2.081870728E0,3.770658875E-1,2.273715960E0
4.525812917E0,-9.006770325E-1,-1.219663696E0,4.550537109E-2,1.516861690E0
4.535785917E0,-8.431965637E-1,-3.900888062E-1,-3.710783386E-1,1.000424338E0
4.545760000E0,-6.544390869E-1,1.550775146E-1,-6.164181519E-1,9.123107431E-1
4.555734000E0,-3.591032410E-1,4.924758911E-1,-7.282356262E-1,9.496392833E-1
4.565707000E0,1.227447510E-2,6.273454285E-1,-7.003935242E-1,9.403531454E-1
4.575681000E0,4.293072510E-1,7.008425903E-1,-6.463558960E-1,1.045591219E0
4.585655000E0,9.304650879E-1,7.923023987E-1,-7.963439941E-1,1.458654218E0
4.595628000E0,1.412762146E0,1.082548828E0,-2.208507385E0,2.836426223E0
4.605602000E0,1.283431091E0,1.073567505E0,-2.554587708E0,3.053794510E0
4.615576000E0,7.939489746E-1,3.733236694E-1,-1.691482544E-1,8.934968766E-1
4.625549000E0,7.596702576E-1,-8.487350464E-2,8.153544617E-1,1.117633800E0
4.635523000E0,7.924520874E-1,-4.598437500E-1,9.717791748E-1,1.335586519E0
4.645497000E0,4.876858521E-1,-6.306385803E-1,6.697073364E-1,1.041177423E0
4.655470000E0,6.496490479E-2,-5.754034424E-1,1.616638184E-1,6.012027533E-1
4.665444000E0,-1.498384094E-1,-5.420228577E-1,-2.827619934E-1,6.294399670E-1
4.675418000E0,-3.351530457E-1,-6.126759338E-1,-1.651665344E0,1.793236675E0
4.685391000E0,-7.641609192E-1,-1.010997620E0,-5.884263611E0,6.019187349E0
4.695365000E0,-1.067430267E0,-1.501377869E0,-5.176685028E0,5.494689323E0
4.705339000E0,-1.396146698E0,-1.662143555E0,-2.928360443E0,3.645166894E0
4.715312000E0,-1.737886047E0,-1.766925659E0,-2.290985870E0,3.375039327E0
4.725286000E0,-2.329755249E0,-1.979783020E0,-3.128344574E0,4.374224514E0
4.735260000E0,-2.435734863E0,-2.464026031E0,-3.875740356E0,5.198614423E0
4.745234000E0,-4.754113770E-1,-3.417692871E0,-2.968327332E0,4.551659882E0
4.755207000E0,2.305655365E0,-4.445755005E0,-8.232879639E-2,5.008748572E0
4.765181000E0,2.633922729E0,-4.870721283E0,5.009333038E0,7.466919864E0
4.775155000E0,3.160377960E0,-4.753964081E0,5.105433197E0,7.658564582E0
4.785128000E0,4.218377838E0,-4.459376678E0,1.125808868E0,6.240849105E0
4.795102000E0,8.529412994E0,-7.829917603E0,-7.265291748E0,1.366905117E1
4.805076000E0,1.223675354E1,-1.544458282E1,-7.055278473E0,2.092964955E1
4.815049000E0,8.861871643E0,-2.429567688E1,1.670825500E0,2.591533025E1
4.825023000E0,8.641978912E0,-3.325035553E1,-1.842518463E0,3.440443019E1
4.834997000E0,8.553363190E0,-4.398273743E1,-1.029603928E1,4.597444549E1
4.844970000E0,2.652184753E0,-4.720718216E1,-1.759575943E1,5.044960735E1
4.854944000E0,-1.876497803E0,-3.632346497E1,-1.149414780E1,3.814486577E1
4.864918000E0,4.822521515E0,-2.946278183E1,-7.671097870E0,3.082463251E1
4.874891000E0,9.324260101E0,-2.690954132E1,-5.512885895E0,2.900788085E1
4.884865000E0,1.023990601E1,-2.563584000E1,-3.628604279E0,2.784275016E1
4.894839000E0,9.440867615E0,-2.589075989E1,-3.613934784E0,2.779427915E1
4.904812000E0,8.117170258E0,-2.474040207E1,-3.980372772E0,2.634045017E1
4.914786000E0,6.750362549E0,-2.197505264E1,-3.022065582E0,2.318627209E1
4.924760000E0,5.559289398E0,-1.848925140E1,-2.342179413E0,1.944849404E1
4.934734000E0,4.700974274E0,-1.494926285E1,-2.564018097E0,1.587935161E1
4.944707000E0,4.468657379E0,-1.143337418E1,-3.455115051E0,1.275259832E1
4.954681000E0,3.917802887E0,-8.357121277E0,-3.715723114E0,9.949736366E0
4.964655000E0,2.193987579E0,-6.583309937E0,-2.943029938E0,7.537570990E0
4.974628000E0,3.543132019E-1,-5.886059875E0,-1.929337921E0,6.204319747E0
4.984602000E0,-8.556207275E-1,-4.987029419E0,-1.454225922E0,5.264724331E0
4.994576000E0,-1.306333466E0,-3.606001282E0,-1.459465027E0,4.103631384E0
5.004549000E0,-1.645827484E0,-2.451152802E0,-1.742526398E0,3.428308097E0
5.014523000E0,-2.054926758E0,-1.661694489E0,-1.859882355E0,3.231580871E0
5.024497000E0,-2.311343536E0,-9.559121704E-1,-1.526525574E0,2.930248684E0
5.034470000E0,-2.021097107E0,-4.460723877E-1,-1.174757080E0,2.379888293E0
5.044444000E0,-1.487007751E0,-7.544311523E-2,-8.120613098E-1,1.695973846E0
5.054418000E0,-1.047371979E0,1.721420288E-1,-5.867797852E-1,1.212819631E0
5.064391000E0,-6.999444580E-1,4.102967834E-1,-6.771917725E-1,1.056813319E0
5.074365000E0,-2.116598511E-1,8.011340332E-1,-1.400038605E0,1.626875449E0
5.084339000E0,7.201524353E-1,1.363963623E0,-4.107458496E0,4.387508586E0
5.094312000E0,1.650168457E0,1.684596863E0,-5.487588501E0,5.972817600E0
5.104286000E0,1.816622314E0,1.325044556E0,-2.778671722E0,3.574475661E0
5.114260000E0,1.462458801E0,8.307723999E-2,7.641609192E-1,1.652159037E0
5.124233000E0,4.093986511E-1,-1.244362335E0,2.019300842E0,2.406994136E0
5.134207000E0,-1.384620667E-1,-1.861379242E0,1.038540344E0,2.135994025E0
5.144181000E0,-2.106120300E-1,-1.597178650E0,-1.187031555E-1,1.615372250E0
5.154154000E0,-1.481918335E-1,-1.023122406E0,-8.942404175E-1,1.366896558E0
5.164128000E0,-4.580474854E-2,-4.079017639E-1,-1.622775421E0,1.673882311E0
5.174102000E0,4.610412598E-2,-8.816665649E-2,-2.074386292E0,2.076770916E0
5.184075000E0,1.353186035E-1,-1.302291870E-1,-2.056573334E0,2.065130660E0
5.194049000E0,1.746867371E-1,-4.143383789E-1,-1.677860870E0,1.737069040E0
5.204023000E0,-1.631607056E-2,-6.830296326E-1,-9.443861389E-1,1.165616091E0
5.213997000E0,1.109193420E-1,-1.001567230E0,-4.400848389E-1,1.099597509E0
5.223970000E0,4.776567078E-1,-1.503024445E0,-2.257305908E-1,1.593170647E0
5.233944000E0,6.985972595E-1,-1.983824615E0,8.842112732E-1,2.281540666E0
5.243918000E0,1.447340240E0,-2.788251801E0,1.199755096E0,3.362819378E0
5.253891000E0,2.366428986E0,-4.124223633E0,6.661148071E-1,4.801345192E0
5.263865000E0,2.696043549E0,-5.431455231E0,1.484912109E-1,6.065592006E0
5.273839000E0,3.730542297E0,-7.097490692E0,5.878276062E-1,8.039705296E0
5.283812000E0,5.665418701E0,-9.140592041E0,1.180145874E0,1.081850896E1
5.293786000E0,5.680836639E0,-1.081246536E1,4.559069366E0,1.303711723E1
5.303760000E0,4.459526367E0,-1.388183258E1,6.661297760E0,1.603014470E1
5.313733000E0,6.818321228E0,-2.585468491E1,-1.548679504E0,2.678343974E1
5.323707000E0,9.550739136E0,-3.739418839E1,-1.090661957E1,4.010606305E1
5.333681000E0,7.785909119E0,-3.617826691E1,-9.289981384E0,3.815483103E1
5.343654000E0,6.947801971E0,-3.521921127E1,-1.463312027E1,3.876587422E1
5.353628000E0,4.018244019E0,-3.576662292E1,-1.693982346E1,3.977882878E1
5.363602000E0,1.612297211E0,-3.278811676E1,-1.129506180E1,3.471654539E1
5.373575000E0,1.706451416E0,-2.932955887E1,-7.363038483E0,3.028777535E1
5.383549000E0,3.372037811E0,-2.665881271E1,-4.484374695E0,2.724284403E1
5.393523000E0,4.593497772E0,-2.551399338E1,-3.149750061E0,2.611484262E1
5.403497000E0,5.117408295E0,-2.352118744E1,-3.359314270E0,2.430471392E1
5.413470000E0,5.142256622E0,-2.046140030E1,-3.853436737E0,2.144669392E1
5.423444000E0,4.955445099E0,-1.714804047E1,-3.449576569E0,1.817996992E1
5.433418000E0,4.649631042E0,-1.385653519E1,-2.751428375E0,1.487255843E1
5.443391000E0,4.191284180E0,-1.108175537E1,-2.382595367E0,1.208507037E1
5.453365000E0,3.456162872E0,-8.956923981E0,-2.143991547E0,9.837085379E0
5.463339000E0,2.149530029E0,-7.192393341E0,-1.780697021E0,7.715042657E0
5.473312000E0,6.466552734E-1,-5.926775208E0,-1.373843079E0,6.118191907E0
5.483286000E0,-3.073109436E-1,-4.806355133E0,-8.836125183E-1,4.896556010E0
5.493260000E0,-6.632707214E-1,-3.570525055E0,-4.785548401E-1,3.663003133E0
5.503233000E0,-1.024619293E0,-2.716700592E0,-3.019221497E-1,2.919154636E0
5.513207000E0,-1.139879608E0,-2.007924500E0,-3.538641357E-1,2.335873743E0
5.523181000E0,-1.208137665E0,-1.183738403E0,-1.712438965E-1,1.700046381E0
5.533154000E0,-1.063538361E0,-5.442681885E-1,4.266128540E-2,1.195475508E0
5.543128000E0,-8.056246948E-1,-2.700384521E-1,7.364685059E-2,8.528632793E-1
5.553102500E0,-4.303550720E-1,-4.430786133E-2,-1.149609375E-1,4.476434873E-1
5.563075500E0,-1.088237000E-1,1.398092651E-1,-2.505789185E-1,3.068860092E-1
5.573049500E0,1.079255676E-1,2.727328491E-1,-3.195854187E-1,4.337810219E-1
5.583023500E0,2.984793091E-1,3.646417236E-1,-3.650907898E-1,5.961080182E-1
5.592996500E0,5.436694336E-1,4.149371338E-1,-5.137316895E-1,8.553768332E-1
5.602970500E0,1.005908203E0,4.266128540E-1,-2.024839325E0,2.300831183E0
5.612944500E0,1.080602875E0,1.962419128E-1,-5.834566956E0,5.937035036E0
5.622917500E0,3.974235535E-1,-5.251080322E-1,-5.354814606E0,5.395157402E0
5.632891500E0,1.743873596E-1,-1.122515717E0,-2.226320343E0,2.499390877E0
5.642865500E0,1.413061523E-1,-1.079555054E0,4.742138672E-1,1.187554350E0
5.652838500E0,-6.313870239E-1,-5.212161255E-1,1.394051056E0,1.616692355E0
5.662812500E0,-1.060544586E0,-4.864883423E-2,1.154998169E0,1.568802823E0
5.672786500E0,-9.316625977E-1,1.324745178E-1,6.541397095E-2,9.433046599E-1
5.682759500E0,-1.118174744E0,8.442443848E-2,-2.089055786E0,2.370990578E0
5.692733500E0,-1.019529877E0,-9.355545044E-2,-3.597768402E0,3.740605735E0
5.702707500E0,-6.965016174E-1,-2.927911377E-1,-3.903881836E0,3.976321735E0
5.712680500E0,-1.661544800E-1,-4.601431274E-1,-3.829336853E0,3.860461079E0
5.722654500E0,1.983375549E-1,-5.126838684E-1,-3.896397400E0,3.934983511E0
5.732628500E0,6.192622375E-1,-7.783813477E-1,-3.979025574E0,4.101464099E0
5.742602500E0,2.311343536E0,-1.456770630E0,-2.071392517E0,3.428579381E0
5.752575500E0,5.419629822E0,-3.518583069E0,1.157093811E0,6.564425360E0
5.762549500E0,5.968388672E0,-5.483247528E0,2.943329315E0,8.622694141E0
5.772523500E0,5.407654724E0,-6.662495270E0,2.910098419E0,9.060918587E0
5.782496500E0,7.890541534E0,-9.812095642E0,2.914439392E-1,1.259455462E1
5.792470500E0,9.836943970E0,-1.487247253E1,-1.264869690E-1,1.783176674E1
5.802444500E0,6.434070282E0,-1.966251160E1,5.596112823E0,2.143194115E1
5.812417500E0,8.447533264E0,-2.734259079E1,7.381150818E-1,2.862731044E1
5.822391500E0,1.031370255E1,-3.574117584E1,-6.706354065E0,3.779919702E1
5.832365500E0,2.205214233E0,-3.734838364E1,-7.089257813E0,3.807915843E1
5.842338500E0,-5.947132874E-1,-3.727189270E1,-1.222133560E1,3.922892700E1
5.852312500E0,1.816322937E0,-3.506817535E1,-1.446561859E1,3.797802092E1
5.862286500E0,5.451962585E0,-3.132371201E1,-1.196641571E1,3.397195807E1
5.872259500E0,8.007298737E0,-2.896716248E1,-8.388555908E0,3.120226282E1
5.882233500E0,7.375312958E0,-2.744183441E1,-5.146747284E0,2.887799378E1
5.892207500E0,5.774990845E0,-2.612113083E1,-4.066144409E0,2.705914864E1
5.902180500E0,4.767136688E0,-2.360052246E1,-3.264561310E0,2.429748162E1
5.912154500E0,4.949307861E0,-2.003089554E1,-1.750160522E0,2.070737758E1
5.922128500E0,5.230423279E0,-1.689776093E1,-1.091979218E0,1.772241718E1
5.932101500E0,4.663701782E0,-1.420680679E1,-1.012943573E0,1.498697862E1
5.942075500E0,4.334985352E0,-1.172571625E1,-1.316362610E0,1.257049442E1
5.952049500E0,3.378923492E0,-9.571545868E0,-1.987716522E0,1.034324085E1
5.962022500E0,1.881437531E0,-7.501650238E0,-2.342329102E0,8.080907690E0
5.971996500E0,6.806346130E-1,-5.770200806E0,-2.490071869E0,6.321308308E0
5.981970500E0,-5.177732849E-1,-4.661456451E0,-2.699187012E0,5.411365442E0
5.991943500E0,-1.645827484E0,-3.364553375E0,-2.521356812E0,4.515108824E0
6.001917500E0,-2.542013855E0,-1.908231812E0,-2.229463806E0,3.882485280E0
6.011891500E0,-2.522704010E0,-1.026565247E0,-1.908082123E0,3.325454723E0
6.021864500E0,-1.903292084E0,-4.085005188E-1,-1.095571747E0,2.233757123E0
6.031838500E0,-1.148411865E0,2.829116821E-2,-3.471281433E-1,1.200061728E0
6.041812500E0,-7.280859375E-1,2.989283752E-1,-1.257385254E-1,7.970429616E-1
6.051785500E0,-4.893324280E-1,5.144801331E-1,-4.616400146E-1,8.469046791E-1
6.061759500E0,-2.884501648E-1,6.502478027E-1,-8.896000671E-1,1.139040817E0
6.071733500E0,-2.591111755E-1,6.990463257E-1,-1.954485626E0,2.091845699E0
6.081706500E0,-5.037025452E-1,9.952803040E-1,-7.399712219E0,7.483317451E0
6.091680500E0,-9.864486694E-2,1.127455444E0,-7.573650513E0,7.657745665E0
6.101654500E0,7.289840698E-1,8.093669128E-1,-3.132535858E0,3.316515261E0
6.111627500E0,1.714833984E0,-1.067280579E-1,1.363364868E0,2.193355930E0
6.121601500E0,1.020877075E0,-9.135502625E-1,3.499871979E0,3.758439563E0
6.131575500E0,1.745370483E-1,-1.197210388E0,2.114951935E0,2.436554449E0
6.141549500E0,2.365081787E-1,-1.097517700E0,5.655239868E-1,1.257099280E0
6.151522500E0,8.023315430E-2,-7.918533325E-1,-5.099894714E-1,9.452821379E-1
6.161496500E0,-4.400848389E-2,-4.828958130E-1,-1.310524750E0,1.397354727E0
6.171470500E0,-1.565744019E-1,-1.122665405E-1,-1.174906769E0,1.190598688E0
6.181443500E0,-2.321672058E-1,-7.589218140E-2,-7.979905701E-1,8.345359097E-1
6.191417500E0,-1.983375549E-1,-2.769241333E-1,-9.361532593E-1,9.961966102E-1
6.201391500E0,1.472937012E-1,-5.173242188E-1,-8.996292114E-1,1.048166256E0
6.211364500E0,5.327421570E-1,-8.478369141E-1,-8.689430237E-1,1.325784152E0
6.221338500E0,6.780899048E-1,-1.276844788E0,-6.738986206E-1,1.595079271E0
6.231312500E0,1.123862915E0,-1.845063171E0,1.041833496E-1,2.162910106E0
6.241285500E0,1.944905548E0,-3.382516022E0,8.382568359E-3,3.901812719E0
6.251259500E0,2.595752106E0,-4.704566803E0,8.032296753E-1,5.432868092E0
6.261233500E0,3.264261932E0,-5.884113922E0,2.522853699E0,7.186305963E0
6.271206500E0,3.886218567E0,-7.710166626E0,3.080743561E0,9.167352128E0
6.281180500E0,5.629493408E0,-1.016775604E1,6.345304871E-1,1.163946253E1
6.291154500E0,6.845414886E0,-1.314805847E1,1.325643311E0,1.488248893E1
6.301127500E0,5.097799072E0,-1.766281998E1,7.066654816E0,1.969518660E1
6.311101500E0,5.017865295E0,-2.625180908E1,5.820496216E0,2.735351218E1
6.321075500E0,6.022126923E0,-3.422812225E1,-6.945856018E0,3.544115237E1
6.331048500E0,4.905449066E0,-3.511936890E1,-9.407636719E0,3.668701583E1
6.341022500E0,2.840493164E0,-3.598950943E1,-1.003752686E1,3.747085715E1
6.350996500E0,2.562521210E0,-3.810580856E1,-1.528591278E1,4.113731020E1
6.360969500E0,2.781964874E0,-3.676444794E1,-1.551478683E1,4.000090713E1
6.370943500E0,4.838538208E0,-3.339959518E1,-1.240350677E1,3.595540837E1
6.380917500E0,7.132817230E0,-2.877226776E1,-7.115902405E0,3.048534961E1
6.390890500E0,8.131540375E0,-2.488125916E1,-2.780018921E0,2.632351632E1
6.400864500E0,7.559430084E0,-2.149155807E1,-1.010398865E0,2.280466964E1
6.410838500E0,6.163732452E0,-1.811922089E1,-9.277706909E-1,1.916138100E1
6.420811500E0,4.736001434E0,-1.495345413E1,-1.222208405E0,1.573306370E1
6.430785500E0,3.053350525E0,-1.262399826E1,-1.675316162E0,1.309560864E1
6.440759500E0,1.441801758E0,-1.038600220E1,-1.913470917E0,1.065876188E1
6.450732500E0,-1.088237000E-1,-8.400231628E0,-2.072889404E0,8.652895729E0
6.460706500E0,-1.366957397E0,-6.932683411E0,-2.374512177E0,7.454460401E0
6.470680500E0,-2.236499176E0,-5.947731628E0,-2.169139252E0,6.714358136E0
6.480653500E0,-2.453697510E0,-4.752167816E0,-1.991009674E0,5.706824857E0
6.490627500E0,-2.327659607E0,-3.376229095E0,-1.497036896E0,4.365551697E0
6.500601500E0,-2.008972321E0,-2.369123383E0,-4.403842163E-1,3.137300375E0
6.510574500E0,-1.513652344E0,-1.619482269E0,5.517526245E-1,2.284359253E0
6.520548500E0,-1.061143341E0,-1.063837738E0,7.650590515E-1,1.686146872E0
6.530522500E0,-8.255332947E-1,-4.944218445E-1,1.532812500E-1,9.743989545E-1
6.540495500E0,-5.816903687E-1,1.601669312E-2,-5.686674500E-1,8.136355991E-1
6.550469667E0,-2.653981018E-1,3.219804382E-1,-8.731343079E-1,9.677143559E-1
6.560443667E0,2.652484131E-1,5.049000549E-1,-8.761280823E-1,1.045409586E0
6.570416667E0,8.357121277E-1,6.153703308E-1,-7.743397522E-1,1.294873529E0
6.580390667E0,1.776206360E0,9.836045837E-1,-3.830534363E0,4.335363943E0
6.590364667E0,2.976111145E0,1.506317596E0,-9.123976593E0,9.714585895E0
6.600338667E0,2.344125366E0,6.063890076E-1,-2.552042999E0,3.517890679E0
6.610311667E0,1.838626556E0,-4.709207153E-1,2.915038147E0,3.478471120E0
6.620285667E0,1.436562653E0,-7.294331360E-1,4.067341919E0,4.374820595E0
6.630259667E0,6.586303711E-3,-6.957531738E-1,2.847678223E0,2.931447956E0
6.640232667E0,-6.920109558E-1,-5.930667114E-1,1.280736694E0,1.571907684E0
6.650206667E0,-8.301736450E-1,-3.573069763E-1,2.854563904E-1,9.478090034E-1
6.660180667E0,-8.075706482E-1,-2.984793091E-1,-2.344125366E-1,8.923057139E-1
6.670153667E0,-5.915698242E-1,-2.336640930E-1,-2.170636139E0,2.261905173E0
6.680127667E0,1.404080200E-1,-1.460961914E-1,-6.127956848E0,6.131306031E0
6.690101667E0,5.301974487E-1,-2.366578674E-1,-4.824467468E0,4.859280053E0
6.700074667E0,-2.275268555E-2,-4.529580688E-1,-2.011517029E0,2.062011022E0
6.710048667E0,-1.021924896E0,-6.836283875E-1,-5.553451538E-2,1.230756819E0
6.720022667E0,-1.217118988E0,-1.088835754E0,9.770182800E-1,1.903025657E0
6.729995667E0,-4.978646851E-1,-1.574276276E0,2.746788025E-1,1.673817039E0
6.739969667E0,6.930587769E-2,-2.336191864E0,-1.151854706E0,2.605640995E0
6.749943667E0,8.854087830E-1,-3.716471558E0,-1.076112213E0,3.969146892E0
6.759916667E0,1.637145538E0,-4.378245392E0,2.591261444E0,5.344521877E0
6.769890667E0,2.542762299E0,-4.625231781E0,5.295088806E0,7.476387804E0
6.779864667E0,5.241051178E0,-6.608607330E0,1.137185211E0,8.510904682E0
6.789837667E0,1.125180176E1,-1.509086838E1,-8.251291351E0,2.055288691E1
6.799811667E0,1.030127838E1,-2.710892670E1,-1.842518463E0,2.905864961E1
6.809785667E0,5.973029022E0,-3.214086273E1,7.343578949E0,3.350582464E1
6.819758667E0,8.122858429E0,-3.296953949E1,-3.810925140E0,3.416861884E1
6.829732667E0,5.585035858E0,-3.648542816E1,-1.569845490E1,4.011010571E1
6.839706667E0,2.670147400E0,-3.695320541E1,-1.019380188E1,3.842632788E1
6.849679667E0,4.636907501E0,-3.303525284E1,-8.487649841E0,3.442192675E1
6.859653667E0,5.974825287E0,-2.921863953E1,-9.353299713E0,3.125558588E1
6.869627667E0,7.206613770E0,-2.880804337E1,-7.919581146E0,3.073366900E1
6.879600667E0,7.920778656E0,-2.812366653E1,-4.560566254E0,2.957157619E1
6.889574667E0,6.258934479E0,-2.673515396E1,-2.697839813E0,2.759023483E1
6.899548667E0,3.970792694E0,-2.455972778E1,-2.442620544E0,2.499827631E1
6.909521667E0,1.971849518E0,-2.208821732E1,-2.649041290E0,2.233371788E1
6.919495667E0,9.340576172E-1,-1.872516083E1,-3.102448425E0,1.900340227E1
6.929469667E0,1.471889191E0,-1.487052658E1,-3.433410187E0,1.533255765E1
6.939442667E0,2.821931763E0,-1.150447632E1,-3.301534424E0,1.229700792E1
6.949416667E0,3.664230194E0,-8.918304291E0,-2.761906586E0,1.002949960E1
6.959390667E0,3.565136261E0,-6.732549591E0,-1.938768311E0,7.861058651E0
6.969363667E0,2.683170319E0,-5.145699463E0,-1.319805450E0,5.951429437E0
6.979337667E0,1.560504913E0,-4.015699310E0,-9.886940002E-1,4.420241211E0
6.989311667E0,4.505630493E-2,-3.138673096E0,-5.081932068E-1,3.179867797E0
6.999284667E0,-1.089434509E0,-2.443219299E0,-1.692979431E-1,2.680457030E0
7.009258667E0,-1.248852997E0,-1.744322662E0,-2.724334717E-2,2.145469076E0
7.019232667E0,-1.234482880E0,-8.629554749E-1,-7.289840698E-2,1.507963630E0
7.029205667E0,-1.112486572E0,-2.101629639E-1,-2.827619934E-1,1.166940097E0
7.039179667E0,-9.909393311E-1,1.848655701E-1,-5.318440247E-1,1.139734225E0
7.049153667E0,-9.678872681E-1,4.364923096E-1,-9.422904968E-1,1.419592435E0
7.059126667E0,-1.210981750E0,6.881190491E-1,-2.590513000E0,2.941214414E0
7.069100667E0,-1.268911285E0,1.215921478E0,-8.242310028E0,8.427590135E0
7.079074667E0,-3.359014893E-1,1.235979767E0,-7.702981567E0,7.808738747E0
7.089047667E0,3.597019958E-1,-1.287322998E-2,-2.546803894E0,2.572112229E0
7.099021667E0,2.939886475E-1,-1.337468719E0,1.331481171E0,1.909998431E0
7.108995667E0,2.806663513E-1,-1.560504913E0,2.288590851E0,2.784169044E0
7.118968667E0,2.430944824E-1,-1.245410156E0,1.246907043E0,1.779021799E0
7.128942667E0,-7.454498291E-2,-8.652008057E-1,2.023791504E-1,8.916763477E-1
7.138916667E0,-2.311193848E-1,-6.493496704E-1,-7.828720093E-2,6.936858441E-1
7.148889667E0,-1.821711731E-1,-3.529660034E-1,1.234931946E-1,4.159590184E-1
7.158863667E0,-2.213896179E-1,-3.832031250E-2,-3.547622681E-2,2.274651005E-1
7.168837667E0,-5.141807556E-1,3.712280273E-2,-1.372645569E0,1.466259121E0
7.178810667E0,-3.438349915E-1,-2.513273621E-1,-1.068328400E0,1.150092828E0
7.188784667E0,6.286926270E-2,-6.024971008E-1,5.252577209E-1,8.017798788E-1
7.198758667E0,2.290237427E-2,-9.358538818E-1,7.497908020E-1,1.199388700E0
7.208731667E0,-7.529342651E-2,-1.336720276E0,-2.637515259E-1,1.364571385E0
7.218705667E0,-1.880090332E-1,-1.539099426E0,-1.668280792E0,2.277572225E0
7.228679667E0,-4.281097412E-1,-1.530267792E0,-2.246079254E0,2.751339579E0
7.238652667E0,3.631448364E-1,-1.566342773E0,-1.418150940E0,2.143934688E0
7.248626667E0,1.495390320E0,-1.980830841E0,-2.234852600E0,3.339827716E0
7.258600667E0,1.686692505E0,-3.794309692E0,-2.092199249E0,4.649625291E0
7.268573667E0,1.551673279E0,-6.080056458E0,1.903142395E0,6.557188991E0
7.278547667E0,1.323098602E0,-7.657027130E0,4.325105896E0,8.893098189E0
7.288521667E0,1.999092865E0,-1.028077103E1,1.966909790E0,1.065642338E1
7.298494667E0,1.481768646E0,-1.556253754E1,7.370672607E-1,1.565028693E1
7.308468667E0,-3.171903992E-1,-2.425556030E1,3.635939026E0,2.452861325E1
7.318442667E0,8.065228271E-1,-3.431808517E1,-1.773362274E0,3.437333651E1
7.328415667E0,3.616479492E0,-3.873764465E1,-9.018146667E0,3.993758889E1
7.338389667E0,5.478008423E0,-3.865351959E1,-1.261546600E1,4.102746806E1
7.348363667E0,6.498137054E0,-3.798066879E1,-1.092518097E1,4.005142402E1
7.358336667E0,7.741451569E0,-3.355826523E1,-7.063062286E0,3.515642312E1
7.368310667E0,8.136031036E0,-2.919244400E1,-6.894063721E0,3.107928413E1
7.378284667E0,8.195307770E0,-2.713452347E1,-4.766388245E0,2.874306682E1
7.388257667E0,8.370443573E0,-2.606155472E1,-3.135379944E0,2.755176160E1
7.398231667E0,8.474177856E0,-2.460538284E1,-2.324815521E0,2.612740558E1
7.408205667E0,8.070916443E0,-2.212803452E1,-2.536924438E0,2.369020028E1
7.418179667E0,7.537575531E0,-1.864417923E1,-2.922672272E0,2.032147822E1
7.428152667E0,6.943161621E0,-1.492231888E1,-2.783012695E0,1.669216144E1
7.438126667E0,5.811963959E0,-1.211430817E1,-3.013383636E0,1.377010778E1
7.448100667E0,4.210144958E0,-9.896220703E0,-2.442770233E0,1.102849179E1
7.458073667E0,2.057321777E0,-7.952213287E0,-1.703607330E0,8.388834663E0
7.468047667E0,-4.216731262E-1,-6.455924835E0,-1.306183777E0,6.600218918E0
7.478021667E0,-2.394420776E0,-5.196294250E0,-7.789801025E-1,5.774212915E0
7.487994667E0,-3.499572601E0,-4.302502899E0,1.279838562E-1,5.547514710E0
7.497968667E0,-4.058809662E0,-3.616329803E0,1.200653229E0,5.567166721E0
7.507942667E0,-3.861220551E0,-2.671644287E0,1.886526947E0,5.060206642E0
7.517915667E0,-3.107238464E0,-1.560205536E0,1.872156830E0,3.948942059E0
7.527889667E0,-2.373614044E0,-5.905220032E-1,1.382974091E0,2.809871385E0
7.537863667E0,-1.565145264E0,6.316864014E-2,6.011499023E-1,1.677811425E0
7.547836042E0,-8.798703003E-1,3.456312561E-1,-1.257385254E-2,9.454051049E-1
7.557810042E0,-3.597019958E-1,5.056484985E-1,-4.778063965E-1,7.831761503E-1
7.567784042E0,4.894821167E-2,5.816903687E-1,-7.006929016E-1,9.119924094E-1
7.577757042E0,3.124003601E-1,6.363267517E-1,-9.175918579E-1,1.159517373E0
7.587731042E0,6.518943787E-1,8.102650452E-1,-1.700912933E0,1.993640020E0
7.597705042E0,1.130000153E0,1.174457703E0,-3.358416138E0,3.732989445E0
7.607678042E0,1.443897400E0,1.315614166E0,-3.793860626E0,4.267207376E0
7.617652042E0,1.187181244E0,9.575587463E-1,-2.118694153E0,2.610590541E0
7.627626042E0,5.063969421E-1,-2.480342102E-1,7.933502197E-1,9.733259493E-1
7.637599042E0,-5.906716919E-1,-1.016087036E0,1.084045715E0,1.598899942E0
7.647573042E0,-1.049168243E0,-1.559307404E0,-6.947053528E-1,2.003698857E0
7.657547042E0,-1.104253693E0,-1.564097443E0,-1.373244324E0,2.356178474E0
7.667520042E0,-9.988728333E-1,-1.510508881E0,-1.378333740E0,2.275782924E0
7.677494042E0,-9.780661011E-1,-1.719324646E0,-2.464624786E0,3.160231934E0
7.687467042E0,-8.466394043E-1,-1.986369324E0,-4.366569672E0,4.871282384E0
7.697441042E0,-7.116201782E-1,-1.876797180E0,-6.310876465E0,6.622381195E0
7.707415042E0,-1.046024780E0,-1.958078156E0,-6.865323486E0,7.215324281E0
7.717389042E0,-1.110839996E0,-2.618654480E0,-4.585414581E0,5.396048894E0
7.727362042E0,4.062551880E-1,-4.098177795E0,-7.436535645E-1,4.184868593E0
7.737336042E0,2.156116333E0,-5.422024841E0,7.192842407E0,9.261974569E0
7.747310042E0,2.972668304E0,-3.871100006E0,9.340576172E0,1.053890579E1
7.757283042E0,3.964655457E0,-2.930905151E0,3.947291565E0,6.315837917E0
7.767257042E0,8.063282318E0,-5.761967926E0,-1.169996979E1,1.533316957E1
7.777231042E0,6.628066864E0,-1.190459427E1,-1.106948090E0,1.367025856E1
7.787204042E0,1.651066589E0,-1.534114792E1,1.466635117E1,2.128799420E1
7.797178042E0,6.481521606E0,-2.333138214E1,3.611240387E0,2.448274029E1
7.807152042E0,1.374262207E1,-3.515200104E1,-1.041848465E1,3.915440793E1
7.817125042E0,8.747808838E0,-3.763309158E1,-7.189698944E0,3.929968845E1
7.827099042E0,3.857777710E0,-3.524795151E1,-1.092892319E1,3.710447273E1
7.837073042E0,1.880988464E0,-3.287403809E1,-1.337558533E1,3.554077631E1
7.847046042E0,-9.765692139E-1,-3.135035660E1,-9.396110687E0,3.274271587E1
7.857020042E0,-1.689087524E0,-2.984703278E1,-3.786076813E0,3.013358193E1
7.866994042E0,-4.962181091E-1,-2.836900635E1,-1.103056183E0,2.839477921E1
7.876967042E0,1.216220856E0,-2.613430344E1,-4.650828552E-1,2.616672145E1
7.886941042E0,2.991229706E0,-2.325878311E1,-2.197430420E-1,2.345136955E1
7.896915042E0,4.519701233E0,-2.035407349E1,-6.750961304E-1,2.086077088E1
7.906888042E0,5.464536438E0,-1.733859421E1,-1.447340240E0,1.823685284E1
7.916862042E0,5.912255402E0,-1.426877792E1,-1.860930176E0,1.555685857E1
7.926836042E0,6.276298370E0,-1.155836426E1,-2.161205750E0,1.332886026E1
7.936809042E0,5.885610809E0,-9.259744263E0,-2.192939758E0,1.118893486E1
7.946783042E0,4.499343567E0,-7.230563965E0,-1.723964996E0,8.688912653E0
7.956757042E0,3.315156097E0,-5.400020599E0,-7.586224365E-1,6.381691815E0
7.966730042E0,2.625091095E0,-3.903283081E0,-2.396516418E-1,4.710005836E0
7.976704042E0,2.051932983E0,-2.630928955E0,-2.163002014E-1,3.343501445E0
7.986678042E0,1.011895752E0,-1.621428223E0,-6.962022400E-1,2.034123903E0
7.996651042E0,-4.876858521E-1,-1.017583923E0,-1.275946655E0,1.703336255E0
8.006625042E0,-1.719025269E0,-6.960525513E-1,-1.729653168E0,2.535988389E0
8.016599042E0,-2.568508759E0,-6.770420837E-1,-2.340981903E0,3.540595924E0
8.026572042E0,-2.878065033E0,-7.765850830E-1,-2.434986420E0,3.849091008E0
8.036546042E0,-2.854114838E0,-8.669970703E-1,-2.409239960E0,3.834330790E0
8.046520042E0,-2.649640045E0,-1.035696259E0,-2.737956390E0,3.948374894E0
8.056493042E0,-1.940115509E0,-1.294807434E0,-4.110601959E0,4.726269453E0
8.066467042E0,-4.089495850E-1,-1.391955414E0,-6.458469543E0,6.619411491E0
8.076440042E0,1.078357544E0,-1.062789917E0,-7.510032806E0,7.661133738E0
8.086414042E0,1.016685791E0,-6.658154297E-1,-5.988596649E0,6.110666904E0
8.096388042E0,3.354524231E-1,-2.110610962E-1,-2.286644897E0,2.320736952E0
8.106362042E0,1.023870850E-1,-1.649569702E-1,1.310973816E0,1.325272147E0
8.116335042E0,-3.085084534E-1,-3.950285339E-1,2.608325958E0,2.656047686E0
8.126309042E0,-1.020577698E0,-2.462379456E-1,1.852098541E0,2.128962416E0
8.136283042E0,-1.233884125E0,-1.402583313E-1,1.222956848E0,1.742918783E0
8.146256042E0,-9.824070740E-1,-1.586700439E-2,5.454656982E-1,1.123791906E0
8.156230042E0,-9.892927551E-1,8.981323242E-2,-5.700146484E-1,1.145287419E0
8.166203042E0,-5.466632080E-1,5.688171387E-2,-7.300318909E-1,9.137957945E-1
8.176177042E0,9.490264893E-2,-4.206253052E-2,2.450404358E-1,2.661213716E-1
8.186151042E0,5.089416504E-1,-1.160087585E-1,5.776487732E-1,7.785613275E-1
8.196124042E0,8.327183533E-1,-6.131250000E-1,-5.023553467E-1,1.149653433E0
8.206098042E0,1.060095520E0,-1.503174133E0,-2.238594818E0,2.897350815E0
8.216072042E0,1.572180634E0,-2.541864166E0,-7.641609192E-1,3.084925817E0
8.226045042E0,3.063828735E0,-4.941374359E0,8.960366821E-1,5.882780704E0
8.236019042E0,4.703818359E0,-7.285200348E0,7.788304138E-1,8.706700183E0
8.245993042E0,5.428760834E0,-9.460626526E0,2.513273621E-1,1.091045663E1
8.255966042E0,7.987539825E0,-1.322963882E1,-2.366428986E0,1.563406927E1
8.265940042E0,8.732091522E0,-1.761851212E1,7.315287781E-1,1.967730992E1
8.275914042E0,4.486470337E0,-2.438998077E1,6.086792450E0,2.553524272E1
8.285887042E0,3.488345947E0,-3.382261551E1,1.371747437E0,3.402968657E1
8.295861042E0,5.906267853E0,-3.974175659E1,-1.537662415E1,4.302013235E1
8.305835042E0,5.066364441E0,-3.470592865E1,-1.584065918E1,3.848501027E1
8.315809042E0,5.011728058E0,-3.175870743E1,-7.402556305E0,3.299288947E1
8.325782042E0,4.578678589E0,-3.113570297E1,-5.322032776E0,3.191739855E1
8.335756042E0,2.932102661E0,-2.987741959E1,-3.982767792E0,3.028398696E1
8.345729042E0,2.604284363E0,-2.821362946E1,-2.100731506E0,2.841134029E1
8.355703042E0,2.900069275E0,-2.595677261E1,-1.615889740E0,2.616821633E1
8.365677042E0,3.926484833E0,-2.258248947E1,-9.235794067E-1,2.293990220E1
8.375650042E0,5.416636047E0,-1.886302414E1,-1.200353851E0,1.966200588E1
8.385624042E0,6.828200684E0,-1.532917282E1,-1.494342499E0,1.684757916E1
8.395598042E0,7.398814087E0,-1.230546066E1,-2.090552673E0,1.450990084E1
8.405571042E0,6.886130219E0,-1.006536896E1,-2.644850006E0,1.247900930E1
8.415545042E0,5.720953217E0,-8.588540039E0,-2.474953308E0,1.061214962E1
8.425519042E0,3.946243744E0,-7.350314941E0,-2.428400116E0,8.688906522E0
8.435492042E0,1.494342499E0,-6.122418365E0,-2.238594818E0,6.687927400E0
8.445466042E0,-8.325686646E-1,-4.959037628E0,-1.488354950E0,5.244084785E0
8.455440042E0,-3.167862396E0,-3.865711212E0,-6.071374512E-1,5.034649066E0
8.465413042E0,-4.492158508E0,-2.974763947E0,-9.071136475E-2,5.388593244E0
8.475387042E0,-3.894301758E0,-2.181862793E0,-1.453477478E-1,4.466233021E0
8.485361042E0,-2.703827362E0,-1.296154633E0,-3.441343689E-1,3.018133148E0
8.495334042E0,-1.701960754E0,-4.514611816E-1,-5.065466309E-1,1.832232817E0
8.505308042E0,-1.091829529E0,8.217910767E-2,-7.737409973E-1,1.340716322E0
8.515282042E0,-7.000941467E-1,3.246748352E-1,-8.900491333E-1,1.178020807E0
8.525255042E0,-4.664300537E-1,5.059478760E-1,-1.273102570E0,1.447180155E0
8.535229042E0,-4.532574463E-1,1.057101746E0,-5.077890472E0,5.206522646E0
8.545203042E0,-3.138972473E-1,1.780397644E0,-9.589807892E0,9.758727512E0
8.555176667E0,-5.149291992E-2,1.695673828E0,-7.056176605E0,7.257243935E0
8.565150667E0,1.401086426E-1,1.116228790E0,-1.968556366E0,2.267335729E0
8.575124667E0,4.619393921E-1,2.254312134E-1,2.948119354E0,2.992593350E0
8.585097667E0,2.802172852E-1,-7.556286621E-1,3.228037262E0,3.327119019E0
8.595071667E0,-1.113684082E-1,-9.874964905E-1,2.062860260E0,2.289747736E0
8.605045667E0,-2.920426941E-1,-5.742059326E-1,1.306932220E0,1.457076943E0
8.615018667E0,-1.134640503E-1,-3.981719971E-1,6.542893982E-1,7.742800828E-1
8.624992667E0,2.245330811E-2,-3.866459656E-1,-1.400637360E0,1.453197945E0
8.634966667E0,1.637594604E-1,-5.007087708E-1,-4.216880951E0,4.249660150E0
8.644939667E0,7.948471069E-2,-5.954617310E-1,-3.819008331E0,3.865969106E0
8.654913667E0,-3.231779480E-1,-6.385720825E-1,-2.491119690E0,2.591890353E0
8.664887667E0,-5.544470215E-1,-1.038540344E0,-2.320474548E0,2.602033758E0
8.674860667E0,-7.559280396E-2,-1.587748260E0,-9.193881226E-1,1.836282476E0
8.684834667E0,5.566923523E-1,-2.623145142E0,1.109492798E0,2.902028786E0
8.694808667E0,8.562194824E-1,-5.026397552E0,1.395697632E0,5.286374565E0
8.704781667E0,1.825154572E0,-5.436544647E0,3.072510681E0,6.505961020E0
8.714755667E0,2.757415924E0,-4.904401245E0,3.409459991E0,6.578822963E0
8.724729667E0,3.539539490E0,-5.846691742E0,-7.364685059E-2,6.835025090E0
8.734702667E0,4.375251617E0,-9.179660797E0,-1.575024719E0,1.029027220E1
8.744676667E0,4.233496399E0,-1.426099411E1,3.337160339E0,1.524582185E1
8.754650667E0,6.493347015E0,-2.370560394E1,1.327589264E0,2.461466447E1
8.764623667E0,1.272668472E1,-3.674154556E1,-7.923323364E0,3.968234781E1
8.774597667E0,1.171912994E1,-4.180132370E1,-7.073241119E0,4.398544543E1
8.784571667E0,7.586374054E0,-4.121888489E1,-8.162675629E0,4.269869806E1
8.794544667E0,3.335962830E0,-3.987228516E1,-1.467084183E1,4.261644485E1
8.804518667E0,4.775070190E-1,-3.471416153E1,-1.042866348E1,3.624993856E1
8.814492667E0,1.640738068E0,-3.096580627E1,-4.079466705E0,3.127643247E1
8.824465667E0,4.840184784E0,-2.897988602E1,-3.325185242E0,2.956886943E1
8.834439667E0,6.828949127E0,-2.657648392E1,-2.515668640E0,2.755490215E1
8.844413667E0,7.856861572E0,-2.335787704E1,-1.260379028E0,2.467608658E1
8.854386667E0,7.819289703E0,-1.979887802E1,-2.106569366E0,2.139099102E1
8.864360667E0,7.234904938E0,-1.622251511E1,-3.322790222E0,1.807082678E1
8.874334667E0,6.853049011E0,-1.286903870E1,-4.472848663E0,1.525066598E1
8.884307667E0,5.510041809E0,-1.011132339E1,-4.995411987E0,1.255203420E1
8.894281667E0,3.263513489E0,-8.225844269E0,-4.719236298E0,1.002926844E1
8.904255667E0,6.439608765E-1,-6.975344696E0,-4.139491882E0,8.136676980E0
8.914228667E0,-2.186353455E0,-6.099366302E0,-3.291654968E0,7.267558266E0
8.924202667E0,-4.055815887E0,-5.077890472E0,-2.328557739E0,6.903390132E0
8.934176667E0,-5.196893005E0,-3.834575958E0,-9.969268799E-1,6.534947046E0
8.944149667E0,-5.430856476E0,-2.769989777E0,2.962339783E-1,6.103671026E0
8.954123667E0,-4.613256683E0,-1.414708099E0,1.190025330E0,4.969878924E0
8.964097667E0,-3.164569244E0,-1.050814819E-1,1.024319916E0,3.327877989E0
8.974070667E0,-2.039658508E0,6.259982300E-1,3.969744873E-1,2.170177264E0
8.984044667E0,-1.348395996E0,8.762777710E-1,-1.766326904E-1,1.617786637E0
8.994018667E0,-9.273216248E-1,8.711883545E-1,-7.360194397E-1,1.469904473E0
9.003991667E0,-6.622229004E-1,8.427474976E-1,-1.684746552E0,1.996780773E0
9.013965667E0,6.960525513E-1,1.770967255E0,-1.010309052E1,1.028072235E1
9.023939667E0,1.832788696E0,2.122586060E0,-1.041653870E1,1.078743549E1
9.033912667E0,1.909429321E0,1.211879883E0,-1.230441284E-1,2.264886982E0
9.043886667E0,1.256038055E0,3.061134338E-1,4.917274475E0,5.084380522E0
9.053860667E0,-7.355703735E-1,-9.343569946E-1,2.913840637E0,3.147150144E0
9.063833667E0,-1.875000916E0,-1.773062897E0,1.263522491E0,2.873302900E0
9.073807667E0,-2.349963226E0,-1.750010834E0,7.214996338E-2,2.930882239E0
9.083781667E0,-2.709365845E0,-1.420096893E0,-1.030756531E0,3.227971111E0
9.093754667E0,-2.762355652E0,-9.997709656E-1,-1.167871399E0,3.161340591E0
9.103728667E0,-2.093247070E0,-7.083270264E-1,-4.468208313E-1,2.254564111E0
9.113702667E0,-1.349144440E0,-4.420307922E-1,4.992118835E-1,1.504923402E0
9.123675667E0,-6.807843018E-1,-3.477268982E-1,9.708810425E-1,1.235714878E0
9.133649667E0,-2.335144043E-2,-5.129832458E-1,1.456321564E0,1.544205167E0
9.143623667E0,5.098397827E-1,-6.486012268E-1,1.670226746E0,1.862868094E0
9.153596667E0,6.307882690E-1,-9.566606140E-1,1.138682098E0,1.615453587E0
9.163570667E0,4.879852295E-1,-1.178948364E0,4.340972900E-1,1.347771971E0
9.173543667E0,3.333567810E-1,-1.379830627E0,-2.622546387E-1,1.443550068E0
9.183517667E0,5.119354248E-1,-2.212698669E0,-6.041436768E-1,2.350128265E0
9.193491667E0,1.542392578E0,-4.071682892E0,-2.231559448E0,4.892589704E0
9.203464667E0,3.317850494E0,-5.319188690E0,1.204994202E-1,6.270280722E0
9.213438667E0,4.661157074E0,-5.207221527E0,6.023324432E0,9.226157300E0
9.223412667E0,6.632108459E0,-6.533014526E0,7.635621643E-1,9.340672813E0
9.233385667E0,1.164368683E1,-1.406894348E1,-1.028196854E1,2.095780262E1
9.243359667E0,9.226363678E0,-2.347598145E1,2.087409210E0,2.531017125E1
9.253333667E0,5.558091888E0,-3.130021088E1,1.049587372E1,3.347773815E1
9.263306667E0,7.007378082E0,-3.903747116E1,-3.128643951E0,3.978461908E1
9.273280667E0,4.660258942E0,-3.760375259E1,-1.827804062E1,4.206954946E1
9.283254667E0,2.656675415E0,-3.566408615E1,-1.853760086E1,4.028185213E1
9.293227667E0,5.031337280E0,-3.551484650E1,-1.321392151E1,3.822599113E1
9.303201667E0,8.771459656E0,-3.167518112E1,-1.157557846E1,3.484608472E1
9.313175667E0,9.835896149E0,-2.913556229E1,-9.401050415E0,3.215595733E1
9.323148667E0,9.410630493E0,-2.784419769E1,-8.099057922E0,3.048694886E1
9.333122667E0,7.536976776E0,-2.543570618E1,-6.378086700E0,2.728481551E1
9.343096667E0,5.200186157E0,-2.230047592E1,-5.195845184E0,2.348084261E1
9.353069667E0,4.024231567E0,-1.901271286E1,-3.599265289E0,1.976442260E1
9.363043667E0,3.340154114E0,-1.526196259E1,-2.324965210E0,1.579523962E1
9.373017667E0,3.221750336E0,-1.181867294E1,-2.136956177E0,1.243492208E1
9.382990667E0,2.492167511E0,-8.914262695E0,-2.614762573E0,9.618313866E0
9.392964667E0,1.299447784E0,-6.585555267E0,-2.180814972E0,7.057907386E0
9.402938667E0,8.098159790E-2,-5.027145996E0,-1.135538635E0,5.154435263E0
9.412911667E0,-1.442400513E0,-4.371808777E0,-5.912704468E-1,4.641425639E0
9.422885667E0,-2.660118256E0,-3.781586151E0,-2.005828857E-1,4.627834963E0
9.432859667E0,-2.552791443E0,-3.089724884E0,1.480421448E-1,4.010618467E0
9.442832667E0,-1.907782745E0,-2.031874695E0,6.839277649E-1,2.869826992E0
9.452806667E0,-1.361718292E0,-1.060843964E0,7.220983887E-1,1.871120708E0
9.462780667E0,-1.045276337E0,-3.553610229E-1,3.293151855E-3,1.104035743E0
9.472753667E0,-8.566685486E-1,1.056802368E-1,-5.816903687E-1,1.040871269E0
9.482727667E0,-6.460565186E-1,3.559597778E-1,-8.716374207E-1,1.141861717E0
9.492701667E0,-3.519181824E-1,4.704716492E-1,-1.048120422E0,1.201559986E0
9.502674667E0,-1.335223389E-1,5.125341797E-1,-1.162332916E0,1.277316448E0
9.512648667E0,1.197060699E0,1.274749146E0,-7.615114288E0,7.813315898E0
9.522622667E0,2.538571014E0,1.963916016E0,-1.208646606E1,1.250535769E1
9.532595667E0,1.380279694E0,9.916877747E-1,-3.348237305E0,3.754904756E0
9.542569667E0,3.405418396E-1,1.788780212E-1,4.323758698E0,4.340835791E0
9.552543750E0,-5.203179932E-1,-3.004252625E-1,5.848937073E0,5.879715217E0
9.562516750E0,-1.345851288E0,-8.520281982E-1,3.086880798E0,3.473629342E0
9.572490750E0,-1.436113586E0,-5.938151550E-1,1.349294128E0,2.058065431E0
9.582464750E0,-1.439556427E0,-3.171903992E-1,2.650987244E-1,1.497734886E0
9.592437750E0,-1.476679230E0,-3.330574036E-1,-2.237846375E-1,1.530224933E0
9.602411750E0,-1.727407837E0,-3.857478333E-1,-4.495751038E0,4.831616357E0
9.612385750E0,-1.868414612E0,-6.141728210E-1,-6.523284760E0,6.813327048E0
9.622358750E0,-1.670675812E0,-8.011340332E-1,-3.498824158E0,3.959134235E0
9.632332750E0,-1.285826111E0,-8.430468750E-1,-5.716612244E-1,1.640388179E0
9.642306750E0,-1.145118713E0,-8.527766418E-1,7.649093628E-1,1.619756525E0
9.652279750E0,-7.934999084E-1,-1.003662872E0,7.484436035E-2,1.281632921E0
9.662253750E0,2.859054565E-2,-1.541494446E0,-1.059047699E0,1.870455713E0
9.672227750E0,1.224154358E0,-2.739153900E0,-1.686542816E0,3.441793813E0
9.682200750E0,2.601440277E0,-3.972139893E0,-1.083746338E0,4.870307276E0
9.692174750E0,3.489393768E0,-4.406237183E0,1.690883789E0,5.869402267E0
9.702148750E0,3.312012634E0,-4.423900452E0,3.458108826E0,6.519113402E0
9.712121750E0,3.560795288E0,-5.330565033E0,2.174977112E-1,6.414163383E0
9.722095750E0,4.146078186E0,-1.036265076E1,-3.116070099E0,1.158811408E1
9.732069750E0,4.325854340E0,-1.975531860E1,2.907853088E0,2.043137877E1
9.742042750E0,7.215445404E0,-3.178325638E1,6.781946869E0,3.329013130E1
9.752016750E0,1.040336609E1,-3.923850311E1,-2.460882568E0,4.066873609E1
9.761990750E0,1.276305908E1,-3.165587128E1,-1.179936310E1,3.611391467E1
9.771963750E0,1.142948227E1,-2.791110855E1,-6.233487396E0,3.079804232E1
9.781937750E0,9.753267975E0,-2.871912827E1,-9.623188477E0,3.182012447E1
9.791911750E0,8.307424622E0,-2.674862595E1,-1.295615753E1,3.086040038E1
9.801884750E0,4.685107269E0,-2.843756378E1,-1.325269089E1,3.172190221E1
9.811858750E0,2.031425629E0,-3.085234222E1,-1.018377274E1,3.255307878E1
9.821832750E0,1.226699066E0,-3.014251831E1,-6.276298370E0,3.081344061E1
9.831805750E0,2.197430420E-1,-2.748314850E1,-4.269721069E0,2.781370627E1
9.841779750E0,-1.097218323E-1,-2.348870499E1,-2.926564178E0,2.367057411E1
9.851752750E0,3.150947571E-1,-1.954021591E1,-2.658321991E0,1.972272797E1
9.861726750E0,7.186555481E-1,-1.638582550E1,-3.086282043E0,1.668942420E1
9.871700750E0,1.331930237E0,-1.342767700E1,-3.699257355E0,1.399146357E1
9.881673750E0,1.758243713E0,-1.109043732E1,-4.031716003E0,1.193079858E1
9.891647750E0,1.039288788E0,-8.975635071E0,-3.682192841E0,9.757084105E0
9.901621750E0,2.149530029E-1,-7.300318909E0,-3.510350189E0,8.103296824E0
9.911594750E0,-7.355703735E-1,-6.050118713E0,-2.429747314E0,6.561148698E0
9.921568750E0,-1.441951447E0,-4.620441742E0,-1.463955688E0,5.056764986E0
9.931542750E0,-1.497336273E0,-3.165018311E0,-1.468596039E0,3.796858062E0
9.941515750E0,-1.358125763E0,-2.048639832E0,-1.861678619E0,3.083387428E0
9.951489750E0,-1.165925446E0,-9.192384338E-1,-1.767524414E0,2.308359590E0
9.961463750E0,-1.225800934E0,-5.194198608E-2,-1.667682037E0,2.070374188E0
9.971436750E0,-1.434766388E0,4.567002869E-1,-1.460063782E0,2.097359289E0
9.981410750E0,-1.562750244E0,7.414082336E-1,-1.104403381E0,2.052213762E0
9.991384750E0,-1.576671295E0,8.948391724E-1,-8.797206116E-1,2.015077634E0
1.000135775E1,-1.254840546E0,9.696835327E-1,-7.429051208E-1,1.751233556E0
1.001133175E1,-9.171427917E-1,9.467811584E-1,-5.035528564E-1,1.411067306E0
1.002130575E1,-8.399034119E-1,8.824150085E-1,-1.719923401E-1,1.230315144E0
1.003127875E1,-3.137475586E-1,4.761598206E-1,-6.706054688E-2,5.741627140E-1
1.004125275E1,2.035766602E-1,-3.969744873E-1,-3.739224243E-1,5.821083916E-1
1.005122675E1,2.694396973E-3,-9.569599915E-1,-4.704716492E-1,1.066359816E0
1.006119975E1,-1.913021851E-1,-1.176852722E0,-2.933898926E-1,1.227866640E0
1.007117375E1,-1.121168518E-1,-1.140628052E0,-3.209326172E-1,1.190210186E0
1.008114775E1,-3.607498169E-2,-9.532177734E-1,-5.851332092E-1,1.119064967E0
1.009112075E1,1.402583313E-1,-6.842271423E-1,-1.121467896E0,1.321184856E0
1.010109475E1,7.289840698E-1,-3.775149536E-1,-1.881736908E0,2.053014638E0
1.011106875E1,1.379680939E0,-2.933898926E-2,-2.583777008E0,2.929212163E0
1.012104175E1,1.388063507E0,2.694396973E-1,-2.856509857E0,3.187313385E0
1.013101575E1,6.682104492E-1,3.465293884E-1,-2.667602692E0,2.771766935E0
1.014098975E1,-9.490264893E-2,-6.735992432E-2,-2.546055450E0,2.548713838E0
1.015096275E1,1.847158813E-1,-1.076261902E0,-2.249522095E0,2.500561795E0
1.016093675E1,1.606159973E0,-2.572849731E0,-1.431622925E0,3.353930500E0
1.017091075E1,2.674338684E0,-4.756209412E0,3.082090759E-1,5.465218038E0
1.018088375E1,2.575244751E0,-6.834038544E0,2.273621979E0,7.648877385E0
1.019085775E1,3.437451782E0,-8.103847961E0,1.829794922E0,8.990916304E0
1.020083175E1,4.803361359E0,-1.076800781E1,-1.626068573E0,1.190236832E1
1.021080475E1,6.756948853E0,-1.475945755E1,-2.459685059E0,1.641791691E1
1.022077875E1,7.014712830E0,-1.849643646E1,1.167272644E0,1.981632870E1
1.023075275E1,6.724765778E0,-2.471570343E1,-6.671626282E-1,2.562291117E1
1.024072575E1,7.188651123E0,-3.292687820E1,-5.271887054E0,3.411229700E1
1.025069975E1,5.143154755E0,-3.789923813E1,-7.429799652E0,3.896159923E1
1.026067375E1,3.207978973E0,-3.773158676E1,-8.667276306E0,3.884694901E1
1.027064675E1,1.616937561E0,-3.281655762E1,-8.074508972E0,3.383398641E1
1.028062075E1,2.286944275E0,-3.013488419E1,-6.586453400E0,3.093093480E1
1.029059475E1,3.233126678E0,-2.944960922E1,-5.298980713E0,3.009670726E1
1.030056775E1,4.359983368E0,-2.775782730E1,-4.342918854E0,2.843180219E1
1.031054175E1,5.208868103E0,-2.545501602E1,-3.376229095E0,2.620093644E1
1.032051575E1,5.525609436E0,-2.291988785E1,-2.876418457E0,2.375136631E1
1.033048875E1,5.542224884E0,-1.968975494E1,-2.796484680E0,2.064516973E1
1.034046275E1,5.566923523E0,-1.642234955E1,-2.980601807E0,1.759454999E1
1.035043575E1,5.195396118E0,-1.363709152E1,-3.118914185E0,1.492280241E1
1.036040975E1,4.368815002E0,-1.130389343E1,-2.874622192E0,1.245503930E1
1.037038375E1,3.291804657E0,-8.988807678E0,-2.324366455E0,9.850752296E0
1.038035675E1,1.776206360E0,-6.837481384E0,-1.407373352E0,7.203246523E0
1.039033075E1,-3.876937866E-2,-5.520370331E0,-4.185296631E-1,5.536348863E0
1.040030475E1,-2.001487885E0,-5.153782654E0,4.207749939E-1,5.544770599E0
1.041027775E1,-3.387006683E0,-4.197421417E0,1.135987701E0,5.511862560E0
1.042025175E1,-3.823498993E0,-2.672243042E0,1.428479462E0,4.878583913E0
1.043022575E1,-3.876189423E0,-1.222058716E0,1.037492523E0,4.194599228E0
1.044019875E1,-3.597618713E0,-2.444416809E-1,1.917512512E-1,3.611008264E0
1.045017275E1,-2.970572662E0,2.556683350E-1,-4.888833618E-1,3.021369752E0
1.046014675E1,-2.067799988E0,6.584806824E-1,-7.759863281E-1,2.304679670E0
1.047011975E1,-8.439450073E-1,9.063652039E-1,-8.849597168E-1,1.522134934E0
1.048009375E1,1.628313904E0,1.134341125E0,-4.818479919E0,5.211130846E0
1.049006775E1,7.033423920E0,1.595532074E0,-1.468670883E1,1.636197393E1
1.050004075E1,6.602769470E0,7.059320068E-1,-5.444178772E0,8.586849665E0
1.051001475E1,4.935686188E0,6.780899048E-2,1.598076782E0,5.188395282E0
1.051998875E1,1.653611298E0,-8.532257080E-2,2.145488434E0,2.710134846E0
1.052996175E1,-4.845423889E-1,-4.364923096E-1,8.220904541E-1,1.049351980E0
1.053993575E1,-1.345551910E0,-3.760180664E-1,-4.683760071E-1,1.473524894E0
1.054990954E1,-1.740879822E0,3.143463135E-3,-2.489323425E0,3.037664160E0
1.055988254E1,-2.173330536E0,9.969268799E-2,-3.114872589E0,3.799438840E0
1.056985654E1,-2.520009613E0,-9.131011963E-2,-2.626288605E0,3.640903435E0
1.057983054E1,-2.654879150E0,-3.103047180E-1,-1.460213470E0,3.045799682E0
1.058980354E1,-2.587668915E0,-3.079096985E-1,1.152603149E-2,2.605949279E0
1.059977754E1,-2.081571350E0,-3.929328918E-1,9.988728333E-1,2.342025294E0
1.060975154E1,-1.122066650E0,-8.083190918E-1,9.593550110E-1,1.683085072E0
1.061972454E1,-4.567002869E-1,-1.112336884E0,4.553530884E-1,1.285774059E0
1.062969854E1,1.558259583E-1,-1.726809082E0,-5.593867493E-1,1.821830088E0
1.063967254E1,1.123563538E0,-2.664459229E0,-7.306306458E-1,2.982542396E0
1.064964554E1,1.975591736E0,-3.635040894E0,4.149371338E-1,4.157963183E0
1.065961954E1,3.385060730E0,-4.587809601E0,7.214996338E-2,5.701915353E0
1.066959254E1,4.905299377E0,-4.933590546E0,1.838476868E0,7.195990192E0
1.067956654E1,4.886588287E0,-5.217550049E0,5.511389008E0,9.026460125E0
1.068954054E1,4.209546204E0,-6.432423706E0,5.563480682E0,9.489397835E0
1.069951354E1,3.294798431E0,-1.031025970E1,2.360890503E0,1.107840042E1
1.070948754E1,4.087699585E0,-1.665361862E1,5.032534790E-1,1.715533635E1
1.071946154E1,6.608008575E0,-2.515144730E1,1.200204163E0,2.603270190E1
1.072943454E1,9.009614410E0,-3.381453232E1,-1.262175293E0,3.501697923E1
1.073940854E1,7.714956665E0,-3.850008865E1,-6.168372803E0,3.974702763E1
1.074938254E1,5.243595886E0,-3.990776138E1,-1.339339828E1,4.242060624E1
1.075935554E1,3.707340546E0,-3.727578461E1,-1.677426773E1,4.104393439E1
1.076932954E1,2.026336212E0,-3.325275055E1,-1.051997360E1,3.493596001E1
1.077930354E1,2.414179688E0,-3.015239777E1,-2.943329315E0,3.039175122E1
1.078927654E1,3.742966461E0,-2.688648926E1,-7.765850830E-1,2.715688102E1
1.079925054E1,5.446274414E0,-2.428040863E1,2.395019531E-2,2.488374413E1
1.080922454E1,6.347550201E0,-2.240046799E1,4.469705200E-1,2.328673748E1
1.081919754E1,6.370602264E0,-2.000395157E1,1.212478638E-2,2.099387526E1
1.082917154E1,7.032076721E0,-1.739233246E1,-1.707349548E0,1.883768494E1
1.083914554E1,6.817872162E0,-1.474224335E1,-2.929857330E0,1.650458069E1
1.084911854E1,5.895939331E0,-1.214394653E1,-2.955753479E0,1.381933488E1
1.085909254E1,4.538562012E0,-9.846973114E0,-2.623743896E0,1.115551239E1
1.086906654E1,2.933749237E0,-8.272846527E0,-2.300565948E0,9.074110311E0
1.087903954E1,1.008303223E0,-6.920408936E0,-1.602268066E0,7.174677566E0
1.088901354E1,-5.465135193E-1,-5.650300140E0,-7.583230591E-1,5.727095474E0
1.089898754E1,-1.538051605E0,-4.589156799E0,-1.824705505E-1,4.843475856E0
1.090896054E1,-2.033072205E0,-3.121009827E0,5.426216125E-1,3.764109874E0
1.091893454E1,-1.817370758E0,-1.607956238E0,6.903643799E-1,2.522887772E0
1.092890854E1,-9.729766846E-1,-3.905378723E-1,2.600093079E-1,1.080189011E0
1.093888154E1,-4.969665527E-2,2.625540161E-1,-3.664379883E-1,4.535208575E-1
1.094885554E1,6.176156616E-1,6.089337158E-1,-6.322851562E-1,1.073328419E0
1.095882954E1,1.320254517E0,9.458830261E-1,-1.044976959E0,1.931254394E0
1.096880254E1,2.917582855E0,2.004481659E0,-6.321204987E0,7.244851201E0
1.097877654E1,4.066593475E0,2.949616241E0,-9.481283569E0,1.072996536E1
1.098875054E1,3.069965973E0,2.444566498E0,-3.539988556E0,5.285084239E0
1.099872354E1,2.074685669E0,1.126557312E0,2.105222168E0,3.163133317E0
1.100869754E1,7.366181946E-1,-3.519181824E-1,3.693120117E0,3.782272990E0
1.101867154E1,-8.051756287E-1,-1.471589813E0,1.825453949E0,2.479146323E0
1.102864454E1,-1.245110779E0,-1.578766937E0,8.303233337E-1,2.175371861E0
1.103861854E1,-1.511706390E0,-1.142574005E0,3.345542908E-1,1.924229233E0
1.104859154E1,-1.391656036E0,-8.005352783E-1,-1.466949463E-1,1.612167070E0
1.105856554E1,-1.507515106E0,-7.003935242E-1,-1.113983459E0,2.001027744E0
1.106853954E1,-1.845512238E0,-8.050259399E-1,-2.596500549E0,3.285695860E0
1.107851254E1,-1.652563477E0,-9.633966064E-1,-2.643652496E0,3.263126965E0
1.108848654E1,-1.253493347E0,-1.035845947E0,-1.598974915E0,2.280557646E0
1.109846054E1,-1.098116455E0,-9.006770325E-1,-6.474037170E-1,1.560836455E0
1.110843354E1,-7.982899475E-1,-6.927593994E-1,3.637435913E-2,1.057594213E0
1.111840754E1,-4.697232056E-1,-6.825805664E-1,3.502716064E-2,8.293268484E-1
1.112838154E1,-1.802252197E-1,-7.943980408E-1,-3.625460815E-1,8.916215779E-1
1.113835454E1,-6.526428223E-2,-1.034798126E0,-3.302133179E-1,1.088167002E0
1.114832854E1,1.035845947E0,-1.693278809E0,7.888595581E-1,2.135993762E0
1.115830254E1,2.337239685E0,-3.886517944E0,1.679657135E0,4.836213309E0
1.116827554E1,3.016377411E0,-4.390968933E0,4.473447418E0,6.956354840E0
1.117824954E1,3.069666595E0,-4.680167542E0,4.728217621E0,7.326859020E0
1.118822354E1,5.320835266E0,-6.718179474E0,9.401948547E-1,8.621437800E0
1.119819654E1,6.596033478E0,-1.366418518E1,7.165599060E-1,1.518983451E1
1.120817054E1,4.114194489E0,-2.536640030E1,5.516628113E0,2.628334161E1
1.121814454E1,9.192833405E0,-3.822301483E1,5.819149017E0,3.974128262E1
1.122811754E1,1.946043182E1,-4.405623459E1,-3.335962830E0,4.827824418E1
1.123809154E1,1.465003510E1,-4.146946381E1,-9.243278503E0,4.494194204E1
1.124806554E1,3.908222809E0,-4.067282043E1,-1.768736893E1,4.452410075E1
1.125803854E1,-1.547032928E0,-3.840743134E1,-2.080254089E1,4.370663337E1
1.126801254E1,-4.343966675E0,-3.484184601E1,-1.647653687E1,3.878531355E1
1.127798654E1,-1.965113525E0,-3.127865570E1,-1.056188644E1,3.307218497E1
1.128795954E1,1.655108185E0,-2.638203827E1,-5.464237061E0,2.699276223E1
1.129793354E1,5.156477051E0,-2.131791916E1,-8.277786255E-1,2.194830632E1
1.130790754E1,7.234455872E0,-1.658730652E1,1.389261017E0,1.814954918E1
1.131788054E1,6.584806824E0,-1.353530319E1,1.101409607E0,1.509228997E1
1.132785454E1,4.991071014E0,-1.111902786E1,1.055305481E-1,1.218830206E1
1.133782854E1,4.131857758E0,-8.630153503E0,-4.950205994E-1,9.581066925E0
1.134780154E1,2.715952148E0,-6.577621765E0,-1.276096344E0,7.229794329E0
1.135777554E1,7.934999084E-1,-5.375471649E0,-1.606309662E0,5.666177573E0
1.136774954E1,-1.201102295E0,-5.034929810E0,-1.228794708E0,5.320065915E0
1.137772254E1,-2.195185089E0,-4.573439484E0,-8.927435303E-1,5.150939458E0
1.138769654E1,-2.245181122E0,-3.857927399E0,-9.452842712E-1,4.562675140E0
1.139767054E1,-1.739532623E0,-2.796035614E0,-1.193617859E0,3.502643644E0
1.140764354E1,-1.247356110E0,-1.602866821E0,-1.408720551E0,2.471755024E0
1.141761754E1,-1.027014313E0,-6.240522766E-1,-1.319805450E0,1.784961083E0
1.142759154E1,-7.861651611E-1,1.583706665E-1,-1.464704132E0,1.669878775E0
1.143756454E1,-4.212240601E-1,6.981481934E-1,-1.686542816E0,1.873303841E0
1.144753854E1,1.047821045E-3,1.018482056E0,-1.838476868E0,2.101738325E0
1.145751154E1,6.795867920E-2,1.355131989E0,-1.637893982E0,2.126898631E0
1.146748554E1,-1.329235840E-1,1.511407013E0,-1.306483154E0,2.002228276E0
1.147745954E1,-1.231938171E-1,1.350940704E0,4.055067444E-1,1.415857769E0
1.148743254E1,3.667373657E-1,1.059047699E0,2.603835297E0,2.834790394E0
1.149740654E1,9.806108093E-1,5.740562439E-1,2.216440887E0,2.490732490E0
1.150738054E1,6.942562866E-1,-1.901046753E-1,9.912387085E-1,1.225024798E0
1.151735354E1,4.424798584E-1,-5.412744141E-1,4.725672913E-1,8.438520375E-1
1.152732754E1,3.824546814E-1,-5.707630920E-1,1.633103943E-1,7.061957062E-1
1.153730154E1,9.879455566E-2,-5.533992004E-1,-1.188528442E-1,5.745755284E-1
1.154727454E1,-1.978884888E-1,-5.334906006E-1,-6.007008362E-1,8.274137837E-1
1.155724850E1,-7.011419678E-1,-6.659651184E-1,-2.399061127E0,2.586620167E0
1.156722250E1,-1.094074860E0,-9.636959839E-1,-4.461771698E0,4.693944656E0
1.157719550E1,-9.144483948E-1,-1.257235565E0,-4.387526093E0,4.654808519E0
1.158716950E1,-2.689906311E-1,-1.534608765E0,-3.247047729E0,3.601485663E0
1.159714350E1,-1.511856079E-1,-1.707648926E0,-3.798051910E0,4.167027748E0
1.160711650E1,-8.494834900E-1,-2.144440613E0,-5.741161194E0,6.187178646E0
1.161709050E1,-1.029409332E0,-2.757116547E0,-5.383105774E0,6.135079706E0
1.162706450E1,5.783972168E-1,-3.637884979E0,-1.866169281E0,4.129326610E0
1.163703750E1,3.942501526E0,-5.054239655E0,6.523584137E0,9.145808152E0
1.164701150E1,2.829565887E0,-4.818629608E0,7.697143707E0,9.511658933E0
1.165698550E1,2.610571289E0,-3.757037201E0,1.689237213E0,4.876877418E0
1.166695850E1,8.270900574E0,-7.691904602E0,-8.095615082E0,1.389648071E1
1.167693250E1,6.185437317E0,-1.219124817E1,4.632117462E0,1.443408047E1
1.168690650E1,1.585652618E0,-1.701107529E1,9.340426483E0,1.947137755E1
1.169687950E1,5.421426086E0,-3.032798264E1,9.035211182E-1,3.082198472E1
1.170685350E1,7.435038757E0,-4.281321945E1,-7.613018646E0,4.411586579E1
1.171682750E1,4.236041107E0,-4.068120300E1,-1.097487762E1,4.234799005E1
1.172680050E1,4.135300598E0,-3.779221069E1,-1.192659851E1,3.984464396E1
1.173677450E1,3.919898529E0,-3.540362778E1,-1.018841309E1,3.704843081E1
1.174674850E1,4.190086670E0,-3.177696945E1,-1.028331573E1,3.366124175E1
1.175672150E1,5.241799622E0,-2.939138031E1,-9.140592041E0,3.122307036E1
1.176669550E1,5.677992554E0,-2.714021164E1,-3.966601410E0,2.801008058E1
1.177666950E1,6.126459961E0,-2.524066177E1,-2.590662689E0,2.610241467E1
1.178664250E1,5.542524261E0,-2.271496399E1,-1.781295776E0,2.344914026E1
1.179661650E1,4.359833679E0,-1.982672012E1,-1.483564911E0,2.035455589E1
1.180658950E1,3.899391174E0,-1.612895966E1,-1.640289001E0,1.667450566E1
1.181656350E1,3.376378784E0,-1.230665817E1,-1.612446899E0,1.286288281E1
1.182653750E1,2.333048401E0,-9.131461029E0,-1.388213196E0,9.526480528E0
1.183651050E1,1.160237274E0,-6.895560608E0,-6.629713440E-1,7.023847780E0
1.184648450E1,-5.837860107E-2,-5.931116180E0,-2.082170105E-1,5.935056995E0
1.185645850E1,-1.213077393E0,-5.402864685E0,-8.023315430E-2,5.537954579E0
1.186643150E1,-1.672322388E0,-4.681065674E0,-4.790039063E-2,4.971049432E0
1.187640550E1,-1.492396545E0,-3.560346222E0,-3.071612549E-1,3.872681333E0
1.188637950E1,-1.051413574E0,-2.243085480E0,-7.614665222E-1,2.591666305E0
1.189635250E1,-6.903643799E-1,-1.061891785E0,-1.229992218E0,1.765530514E0
1.190632650E1,-6.605763245E-1,-1.077758789E-1,-1.501976624E0,1.644357169E0
1.191630050E1,-4.870870972E-1,5.478607178E-1,-1.558558960E0,1.722356304E0
1.192627350E1,-1.501377869E-1,9.139993286E-1,-1.360520782E0,1.645889707E0
1.193624750E1,2.272274780E-1,1.191073151E0,-1.610650635E0,2.016056310E0
1.194622150E1,6.285429382E-1,1.433868256E0,-2.682421875E0,3.105870492E0
1.195619450E1,9.195378113E-1,1.733096008E0,-4.784949646E0,5.171548576E0
1.196616850E1,8.029302979E-1,1.602866821E0,-4.574786682E0,4.913507128E0
1.197614250E1,3.570075989E-1,5.319937134E-1,-1.975891113E0,2.077165720E0
1.198611550E1,9.160949707E-2,-9.069639587E-1,6.212081909E-1,1.103120818E0
1.199608950E1,2.203417969E-1,-1.475182343E0,2.060764618E0,2.543907282E0
1.200606350E1,2.242337036E-1,-1.688638458E0,1.477577362E0,2.254997884E0
1.201603650E1,3.113525391E-2,-1.683099976E0,3.504212952E-1,1.719473761E0
1.202601050E1,-2.255809021E-1,-1.584604797E0,-9.416917419E-1,1.857052084E0
1.203598450E1,-3.058140564E-1,-1.484163666E0,-2.296374664E0,2.751290719E0
1.204595750E1,-3.126997375E-1,-9.268725586E-1,-2.695594482E0,2.867595418E0
1.205593150E1,-3.495231628E-1,-2.700384521E-1,-2.165846100E0,2.210424515E0
1.206590550E1,-1.122665405E-2,-1.737886047E-1,-1.224753113E0,1.237072635E0
1.207587850E1,3.474275208E-1,-4.569996643E-1,-4.845423889E-1,7.512229376E-1
1.208585250E1,3.890409851E-1,-1.172062683E0,-4.311035156E-2,1.235695077E0
1.209582550E1,5.484594727E-1,-2.029928741E0,1.107097778E0,2.376359396E0
1.210579950E1,1.031654663E0,-3.043471069E0,2.478545837E0,4.058351508E0
1.211577350E1,2.328857117E0,-4.079317017E0,3.116519165E-1,4.707603393E0
1.212574650E1,4.004322968E0,-5.243745575E0,-8.819659424E-1,6.656525671E0
1.213572050E1,3.959566040E0,-6.454577637E0,2.389630737E0,7.940407468E0
1.214569450E1,4.475842438E0,-6.958429871E0,3.420237579E0,8.952705563E0
1.215566750E1,6.156996460E0,-7.777077484E0,2.563419342E0,1.024512852E1
1.216564150E1,6.710994415E0,-1.025756927E1,2.909649353E0,1.259846153E1
1.217561550E1,7.658823395E0,-1.787163574E1,1.945953369E0,1.954071837E1
1.218558850E1,7.154522095E0,-3.046285217E1,2.299218750E-1,3.129257760E1
1.219556250E1,3.449726257E0,-3.878689224E1,-4.837789764E0,3.923936583E1
1.220553650E1,-1.343605957E0,-3.871204788E1,-1.069705536E1,4.018525751E1
1.221550950E1,-3.945644989E0,-3.969789780E1,-1.707080109E1,4.339243544E1
1.222548350E1,-2.859054565E0,-3.714271133E1,-1.585832245E1,4.048754857E1
1.223545750E1,8.152047729E-1,-3.142759598E1,-9.487420807E0,3.283853683E1
1.224543050E1,5.140610046E0,-2.814282669E1,-4.414619751E0,2.894707988E1
1.225540450E1,7.422015839E0,-2.561503326E1,-9.901908875E-1,2.668701419E1
1.226537850E1,8.043822784E0,-2.251153702E1,1.093176727E0,2.393047052E1
1.227535150E1,7.463329926E0,-1.920057220E1,1.604663086E0,2.066248316E1
1.228532550E1,6.340664520E0,-1.641920609E1,-5.987548828E-2,1.760107781E1
1.229529950E1,5.274282074E0,-1.412762146E1,-1.454076233E0,1.514998605E1
1.230527250E1,4.119882660E0,-1.213227081E1,-2.507286072E0,1.305572333E1
1.231524650E1,1.992805939E0,-1.056128769E1,-3.499722290E0,1.130310264E1
1.232522050E1,6.256988525E-2,-9.614207153E0,-3.339255981E0,1.017779567E1
1.233519350E1,-1.932631073E0,-8.843908997E0,-2.522704010E0,9.397543547E0
1.234516750E1,-3.340303802E0,-7.953410797E0,-1.401385803E0,8.739465371E0
1.235514150E1,-3.548670502E0,-6.563700714E0,-2.195933533E-1,7.464814173E0
1.236511450E1,-3.126997375E0,-4.924758911E0,6.933581543E-1,5.874700711E0
1.237508850E1,-2.374961243E0,-2.923121338E0,6.988966370E-1,3.830605144E0
1.238506250E1,-1.650767212E0,-1.177750854E0,8.128097534E-2,2.029466940E0
1.239503550E1,-1.018781433E0,-1.423539734E-1,-3.637435913E-1,1.091095625E0
1.240500950E1,-2.890489197E-1,2.850073242E-1,-4.218228149E-1,5.854168942E-1
1.241498250E1,4.764591980E-1,4.352947998E-1,-5.514532471E-1,8.488790337E-1
1.242495650E1,1.083147583E0,5.399272156E-1,-8.159532166E-1,1.459626574E0
1.243493050E1,1.632804565E0,8.897497559E-1,-1.631906433E0,2.474029908E0
1.244490350E1,2.680924988E0,2.103276215E0,-7.021897888E0,7.805009902E0
1.245487750E1,2.576591949E0,2.268682251E0,-4.098626862E0,5.346446238E0
1.246485150E1,2.118843842E0,1.851200409E0,9.804611206E-2,2.815325065E0
1.247482450E1,1.934277649E0,1.263372803E0,1.823657684E0,2.943343033E0
1.248479850E1,1.108295288E0,7.114704895E-1,1.893562317E0,2.306531368E0
1.249477250E1,-4.549040222E-1,2.796185303E-1,4.574487305E-1,7.031241234E-1
1.250474550E1,-1.614991608E0,-3.405418396E-1,-1.959275665E0,2.561821182E0
1.251471950E1,-1.947300568E0,-6.884184265E-1,-2.068099365E0,2.922829864E0
1.252469350E1,-1.684447174E0,-8.285270691E-1,-2.107617188E-1,1.888978530E0
1.253466650E1,-1.133592682E0,-8.882528687E-1,7.794291687E-1,1.637539421E0
1.254464050E1,-8.535250854E-1,-8.893006897E-1,6.144721985E-1,1.377293313E0
1.255461437E1,-6.914122009E-1,-9.535171509E-1,1.661544800E-2,1.177931179E0
1.256458738E1,-3.017724609E-1,-1.271006927E0,-7.683522034E-1,1.515549516E0
1.257456138E1,1.785786438E-1,-1.836680603E0,-1.834884338E0,2.602323290E0
1.258453538E1,3.905378723E-1,-2.040556641E0,-2.149380341E0,2.989352285E0
1.259450838E1,6.087840271E-1,-2.308349762E0,-8.488847351E-1,2.533713068E0
1.260448237E1,1.642833710E0,-4.045936432E0,-3.570075989E-1,4.381319280E0
1.261445638E1,2.820434875E0,-4.716392212E0,1.957479401E0,5.833603859E0
1.262442938E1,3.939807129E0,-4.381837921E0,4.430187378E0,7.372187191E0
1.263440337E1,7.015311584E0,-5.577252045E0,-2.140548706E0,9.214243635E0
1.264437738E1,1.245769409E1,-1.063792831E1,-1.283580780E1,2.081147815E1
1.265435038E1,6.672075348E0,-1.360475876E1,4.946613464E0,1.593973134E1
1.266432437E1,2.934347992E0,-1.804751999E1,5.493426361E0,1.909191214E1
1.267429838E1,8.140521698E0,-3.080084930E1,-4.829107819E0,3.222236325E1
1.268427138E1,7.468569031E0,-4.325345398E1,-2.163750458E0,4.394681582E1
1.269424537E1,2.733316040E0,-4.617582687E1,-1.302067337E1,4.805430198E1
1.270421938E1,2.274220734E0,-3.999652679E1,-1.481948273E1,4.271429859E1
1.271419238E1,1.572779388E0,-3.524316147E1,-5.073848877E0,3.564124027E1
1.272416638E1,2.190245361E0,-3.206167740E1,-2.983296204E0,3.227457805E1
1.273414038E1,3.593277740E0,-2.861254990E1,-1.103804626E0,2.885841370E1
1.274411338E1,4.313879242E0,-2.624926437E1,-9.178912354E-1,2.661721170E1
1.275408738E1,4.496798859E0,-2.378733398E1,-6.316864014E-1,2.421688431E1
1.276406038E1,5.162913666E0,-2.094414642E1,-1.193767548E0,2.160412062E1
1.277403437E1,6.330635376E0,-1.790007660E1,-2.795586548E0,1.919127382E1
1.278400838E1,7.417225800E0,-1.454106171E1,-4.238136749E0,1.686474184E1
1.279398138E1,8.684789886E0,-1.121812180E1,-5.980513458E0,1.539605057E1
1.280395537E1,9.340725861E0,-8.619525604E0,-7.085515594E0,1.455162920E1
1.281392938E1,7.569309540E0,-7.136260071E0,-5.539530487E0,1.178588362E1
1.282390238E1,3.793561249E0,-5.988746338E0,-3.519331512E0,7.914662592E0
1.283387637E1,-1.764830017E-1,-5.023553467E0,-1.244512024E0,5.178421175E0
1.284385038E1,-3.664230194E0,-4.210893402E0,4.384382629E-1,5.599145852E0
1.285382338E1,-5.545068970E0,-3.451821899E0,4.715194702E-2,6.531851775E0
1.286379738E1,-5.695805511E0,-2.223176880E0,3.278182983E-1,6.123085881E0
1.287377138E1,-4.869224396E0,-6.560856628E-1,6.147715759E-1,4.951539024E0
1.288374438E1,-3.813020782E0,2.195933533E-1,2.644999695E-1,3.828486511E0
1.289371838E1,-3.050955505E0,6.161187744E-1,-1.139131165E0,3.314445904E0
1.290369238E1,-3.205284576E0,1.304237823E0,-4.192481689E0,5.436155648E0
1.291366537E1,-3.366798706E0,2.010469208E0,-4.468208313E0,5.944931075E0
1.292363938E1,-2.395917664E0,2.359094238E0,-1.376537476E0,3.633263340E0
1.293361338E1,-7.744894409E-1,2.246528320E0,3.941304016E-1,2.408747011E0
1.294358637E1,4.622387695E-1,1.653611298E0,4.451742554E-1,1.773774259E0
1.295356038E1,1.032702484E0,1.006656647E0,-4.581971741E-1,1.513200805E0
1.296353438E1,8.753796387E-1,4.549040222E-1,-1.573378143E0,1.857079956E0
1.297350737E1,4.715194702E-2,-2.486329651E-1,-1.584155731E0,1.604241577E0
1.298348138E1,-1.815724182E-1,-8.437953186E-1,-7.813751221E-1,1.164262068E0
1.299345438E1,4.041595459E-2,-1.254391479E0,-1.556762695E-2,1.255138950E0
1.300342837E1,2.838098145E-1,-1.628613281E0,5.810916138E-1,1.752311814E0
1.301340238E1,3.129991150E-1,-1.633553009E0,7.655081177E-1,1.830974210E0
1.302337538E1,7.379653931E-2,-1.197659454E0,3.713777161E-1,1.256087380E0
1.303334938E1,5.763015747E-2,-5.885760498E-1,-1.682501221E-1,6.148586057E-1
1.304332338E1,3.472778320E-1,-1.856140137E-1,-7.640112305E-1,8.595159190E-1
1.305329637E1,5.980064392E-1,-1.242416382E-2,-1.413211212E0,1.534578767E0
1.306327038E1,7.682025146E-1,-1.800755310E-1,-1.804048462E0,1.969048794E0
1.307324438E1,8.357121277E-1,-5.860313416E-1,-1.703307953E0,1.985725428E0
1.308321737E1,9.913883972E-1,-2.229912872E0,-2.238295441E0,3.311393793E0
1.309319138E1,1.727707214E0,-4.415368195E0,-1.589694214E-1,4.744019371E0
1.310316538E1,2.330803070E0,-4.714146881E0,5.984255676E0,7.966626624E0
1.311313837E1,2.120340729E0,-3.945046234E0,5.706433411E0,7.254144806E0
1.312311238E1,2.586920471E0,-4.089346161E0,1.547332306E0,5.080270348E0
1.313308638E1,3.589685211E0,-6.762187958E0,-1.348695374E-1,7.657102303E0
1.314305937E1,2.686164093E0,-1.181283508E1,2.801274719E0,1.243405365E1
1.315303338E1,2.572250977E0,-2.075254486E1,3.293900299E0,2.116918450E1
1.316300737E1,3.896547089E0,-3.309976868E1,-2.385589142E0,3.341360204E1
1.317298038E1,5.267995148E0,-4.103686340E1,-1.124102417E1,4.287349479E1
1.318295438E1,1.135897888E1,-3.708478180E1,-1.058942917E1,4.020501775E1
1.319292837E1,1.257804382E1,-3.457180756E1,-1.208945984E1,3.872430895E1
1.320290138E1,7.588320007E0,-3.177292786E1,-1.565923645E1,3.622586412E1
1.321287538E1,4.723277893E0,-2.781470901E1,-1.082593735E1,3.021867487E1
1.322284937E1,4.267475739E0,-2.661121170E1,-4.145629120E0,2.726818986E1
1.323282238E1,4.705315247E0,-2.727178802E1,-3.584595795E0,2.790590871E1
1.324279638E1,4.013603668E0,-2.630225418E1,-2.966980133E0,2.677163724E1
1.325277037E1,2.395618286E0,-2.389885208E1,-2.457589417E0,2.414402335E1
1.326274338E1,2.073637848E0,-2.057860657E1,-2.886746979E0,2.088330267E1
1.327271738E1,3.244503021E0,-1.708142899E1,-3.223097534E0,1.768305329E1
1.328269138E1,3.928730164E0,-1.417237839E1,-3.362008667E0,1.508622988E1
1.329266438E1,3.821403351E0,-1.172541687E1,-3.702550507E0,1.287623410E1
1.330263838E1,3.217559052E0,-1.009066635E1,-3.541784821E0,1.116774254E1
1.331261138E1,2.173180847E0,-8.737330627E0,-2.433339844E0,9.326564442E0
1.332258538E1,1.328038330E0,-7.035220184E0,-1.743574219E0,7.368721728E0
1.333255937E1,5.054988098E-1,-5.615422668E0,-1.948947144E0,5.965475317E0
1.334253238E1,-6.864724731E-1,-4.354744263E0,-1.322649536E0,4.602656173E0
1.335250638E1,-1.558109894E0,-3.062032471E0,-3.189866638E-1,3.450435014E0
1.336248037E1,-1.713337097E0,-1.637444916E0,8.232879639E-2,2.371397877E0
1.337245338E1,-1.622176666E0,-4.028123474E-1,-3.915856934E-1,1.716698657E0
1.338242738E1,-1.123114471E0,3.582051086E-1,-9.836045837E-1,1.535309413E0
1.339240137E1,-5.279521179E-1,6.248007202E-1,-1.047970734E0,1.329417932E0
1.340237438E1,-1.767823792E-1,6.730004883E-1,-9.885443115E-1,1.208884412E0
1.341234838E1,9.580078125E-3,9.132508850E-1,-2.759361877E0,2.906578216E0
1.342232238E1,5.117857361E-1,1.998643799E0,-1.170446045E1,1.188490202E1
1.343229538E1,2.125579834E-2,2.093546448E0,-9.546098785E0,9.772992917E0
1.344226938E1,-7.147636414E-1,6.658154297E-1,-8.092172241E-1,1.268475370E0
1.345224338E1,-1.156345367E0,-3.185375977E-1,4.717739410E0,4.867819425E0
1.346221638E1,-1.907782745E0,-1.009650421E0,3.329825592E0,3.968219683E0
1.347219037E1,-2.042801971E0,-1.217268677E0,1.410965881E0,2.765069193E0
1.348216438E1,-1.835034027E0,-6.951544189E-1,1.090931396E0,2.245154974E0
1.349213738E1,-1.109193420E0,-1.709445190E-1,9.084608459E-1,1.443895142E0
1.350211137E1,-6.604266357E-1,-7.948471069E-2,7.710466003E-1,1.018329033E0
1.351208538E1,-6.489006042E-1,-1.368154907E-1,6.971003723E-1,9.621535230E-1
1.352205838E1,-4.599934387E-1,1.496887207E-2,4.534071350E-1,6.460619636E-1
1.353203237E1,8.831634521E-3,2.061213684E-1,4.989125061E-1,5.398867520E-1
1.354200638E1,8.382568359E-2,3.056643677E-1,-4.430786133E-2,3.200322444E-1
1.355197938E1,3.903881836E-1,1.633103943E-1,-7.074288940E-1,8.243354044E-1
1.356195279E1,1.262324982E0,-1.567240906E-1,-1.021026764E0,1.631110803E0
1.357192579E1,1.814826050E0,-7.589218140E-1,-1.338067474E0,2.379071348E0
1.358189979E1,1.953288116E0,-1.791324921E0,-8.764274597E-1,2.791469959E0
1.359187379E1,3.061134338E0,-3.954027557E0,-8.396040344E-1,5.070484424E0
1.360184679E1,4.699327698E0,-6.023174744E0,3.474275208E-1,7.647419217E0
1.361182079E1,4.870421906E0,-6.773564301E0,3.909120941E0,9.213219275E0
1.362179479E1,4.580025787E0,-7.839647369E0,3.600013733E0,9.767128850E0
1.363176779E1,7.669900360E0,-1.205772583E1,-3.827989655E0,1.479424309E1
1.364174179E1,8.503816223E0,-1.994257919E1,-2.198927307E0,2.179120549E1
1.365171579E1,6.790628815E0,-3.008758255E1,-2.890489197E-1,3.084572600E1
1.366168879E1,7.319628754E0,-3.770913345E1,-9.646839294E0,3.960577255E1
1.367166279E1,5.159919891E0,-3.663841003E1,-1.111738129E1,3.863410449E1
1.368163679E1,9.461824036E-1,-3.601121429E1,-9.291478271E0,3.720261260E1
1.369160979E1,-9.298663330E-1,-3.425776062E1,-7.815098419E0,3.515017180E1
1.370158379E1,-1.841171265E-1,-3.031256470E1,-6.482569427E0,3.099853519E1
1.371155779E1,1.298699341E0,-2.876313675E1,-2.896177368E0,2.893773486E1
1.372153079E1,2.723286896E0,-2.785452621E1,-1.648521881E0,2.803584396E1
1.373150479E1,4.609514465E0,-2.597338806E1,-3.291505280E0,2.658380180E1
1.374147879E1,5.746400299E0,-2.319082443E1,-3.829037476E0,2.419704491E1
1.375145179E1,6.643784180E0,-1.991623398E1,-4.709506531E0,2.151687003E1
1.376142579E1,7.484136658E0,-1.639241180E1,-5.224435730E0,1.876214793E1
1.377139979E1,7.565567322E0,-1.337438782E1,-5.237159271E0,1.623391190E1
1.378137279E1,7.201224976E0,-1.082444046E1,-4.757107544E0,1.384399598E1
1.379134679E1,5.921985168E0,-8.458759918E0,-3.963907013E0,1.106042886E1
1.380132079E1,3.299289093E0,-6.585704956E0,-2.556084595E0,7.796819014E0
1.381129379E1,1.246907043E-1,-5.702092438E0,-1.072070618E0,5.803338811E0
1.382126779E1,-2.091151428E0,-4.754712524E0,-1.224453735E-1,5.195690364E0
1.383124179E1,-3.216211853E0,-3.837120667E0,1.118324432E0,5.130123120E0
1.384121479E1,-3.924688568E0,-3.081192627E0,2.550097046E0,5.603563447E0
1.385118879E1,-3.976181488E0,-1.958377533E0,2.785557404E0,5.234939526E0
1.386116279E1,-3.183430023E0,-5.807922363E-1,1.387015686E0,3.520704311E0
1.387113579E1,-2.044747925E0,3.547622681E-1,2.543211365E-1,2.090820313E0
1.388110979E1,-9.740245056E-1,5.197192383E-1,-2.695893860E-1,1.136446330E0
1.389108279E1,-2.224374390E-1,4.354444885E-1,-4.284091187E-1,6.500959081E-1
1.390105679E1,2.429447937E-1,3.400927734E-1,-4.794529724E-1,6.360506427E-1
1.391103079E1,7.255412292E-1,3.290158081E-1,-4.076023865E-1,8.948749537E-1
1.392100379E1,1.805545349E0,7.466473389E-1,-2.401007080E0,3.095530852E0
1.393097779E1,3.059936829E0,1.225202179E0,-3.585194550E0,4.870108185E0
1.394095179E1,2.779719543E0,7.083270264E-1,5.227130127E-1,2.915784082E0
1.395092479E1,1.308578796E0,2.582130432E-1,1.926493835E0,2.343166861E0
1.396089879E1,2.300715637E-1,1.152603149E-2,1.147513733E0,1.170407425E0
1.397087279E1,4.834945679E-1,-2.676434326E-1,2.444416809E-1,6.042778662E-1
1.398084579E1,2.847079468E-1,-3.522175598E-1,-1.663041687E-1,4.824654401E-1
1.399081979E1,-5.733078003E-2,-3.308120728E-1,-4.119433594E-1,5.314327588E-1
1.400079379E1,-2.868035889E-1,-3.622467041E-1,-9.129515076E-1,1.023210354E0
1.401076679E1,-8.589138794E-1,-5.084925842E-1,-3.318748627E0,3.465600988E0
1.402074079E1,-1.490151215E0,-6.459068298E-1,-6.474186859E0,6.674791515E0
1.403071479E1,-1.417103119E0,-7.782316589E-1,-5.784271545E0,6.005965624E0
1.404068779E1,-1.418749695E0,-9.575587463E-1,-4.963079224E0,5.249945222E0
1.405066179E1,-1.570084991E0,-1.137334900E0,-5.807173920E0,6.122251750E0
1.406063579E1,-1.206790466E0,-1.558259583E0,-5.881269836E0,6.202729322E0
1.407060879E1,8.334667969E-1,-2.481988678E0,-4.367916870E0,5.092507485E0
1.408058279E1,4.154909821E0,-3.262914734E0,1.369651794E0,5.457639986E0
1.409055679E1,6.442003784E0,-4.036356354E0,5.270090790E0,9.250159042E0
1.410052979E1,6.523883514E0,-5.824837189E0,1.448986816E0,8.865063292E0
1.411050379E1,1.014859589E1,-1.050036438E1,-8.102800140E0,1.670050959E1
1.412047679E1,8.306376801E0,-1.609977036E1,-6.530918884E-1,1.812801782E1
1.413045079E1,1.249751129E0,-1.600995712E1,1.058942917E1,1.923581595E1
1.414042479E1,3.016377411E0,-2.273741730E1,-3.263214111E-1,2.293894426E1
1.415039779E1,5.044809265E0,-4.164819214E1,-1.283011963E1,4.387065054E1
1.416037179E1,-7.165599060E-1,-5.026322708E1,-6.262377319E0,5.065691290E1
1.417034579E1,-6.162684631E-1,-4.414410187E1,-6.806944885E0,4.467007964E1
1.418031879E1,7.352709961E-1,-3.816149277E1,-9.886490936E0,3.942819875E1
1.419029279E1,2.957998810E0,-3.166754700E1,-6.987619171E0,3.256393882E1
1.420026679E1,6.353088684E0,-2.714500168E1,-2.829865265E0,2.802179490E1
1.421023979E1,8.119864655E0,-2.587219849E1,-1.562899933E0,2.716147111E1
1.422021379E1,8.227490845E0,-2.393343018E1,-1.051712952E0,2.532995827E1
1.423018779E1,7.519912262E0,-2.119307877E1,-6.259982300E-1,2.249638953E1
1.424016079E1,7.212900696E0,-1.795830551E1,-1.899699554E0,1.944570728E1
1.425013479E1,7.358248444E0,-1.452055435E1,-4.064497833E0,1.677827350E1
1.426010879E1,6.473887482E0,-1.112950607E1,-4.624183960E0,1.368065064E1
1.427008179E1,4.251459045E0,-8.486452332E0,-3.436553650E0,1.009478470E1
1.428005579E1,1.819466400E0,-6.923253021E0,-2.526446228E0,7.591101430E0
1.429002979E1,-5.432203674E-1,-6.061944122E0,-1.905537415E0,6.377564406E0
1.430000279E1,-2.618654480E0,-4.999154205E0,-7.355703735E-1,5.691217605E0
1.430997679E1,-3.579356689E0,-3.829935608E0,-2.014810181E-1,5.246026656E0
1.431995079E1,-3.565735016E0,-2.882256317E0,3.088078308E-1,4.595348731E0
1.432992379E1,-3.020868073E0,-1.630559235E0,4.096980286E-1,3.457198259E0
1.433989779E1,-2.250270538E0,-3.998185730E-1,-1.167572021E-2,2.285543417E0
1.434987179E1,-1.479822693E0,3.577560425E-1,-5.243595886E-1,1.610222831E0
1.435984479E1,-9.217831421E-1,6.191125488E-1,-6.873706055E-1,1.305933711E0
1.436981879E1,-4.864883423E-1,6.475534058E-1,-8.014334106E-1,1.139426098E0
1.437979279E1,-2.704875183E-1,8.057743835E-1,-1.675615540E0,1.878862233E0
1.438976579E1,7.394622803E-2,1.783541107E0,-7.070247345E0,7.292111110E0
1.439973979E1,-8.143066406E-2,2.117646332E0,-6.239924011E0,6.589970304E0
1.440971379E1,-2.695893860E-1,1.663640442E0,-5.399272156E-1,1.769717309E0
1.441968679E1,6.960525513E-2,1.098565521E0,3.963308258E0,4.113332401E0
1.442966079E1,1.422042847E-2,2.248324585E-1,3.656296692E0,3.663230453E0
1.443963379E1,-2.323168945E-1,-4.035607910E-1,1.492396545E0,1.563355334E0
1.444960779E1,-3.150947571E-1,-4.334985352E-1,3.396437073E-1,6.344789467E-1
1.445958179E1,-2.179467773E-1,-3.519181824E-1,-1.977388000E-1,4.587459405E-1
1.446955479E1,-1.607656860E-1,-2.998265076E-1,-6.198609924E-1,7.070849952E-1
1.447952879E1,-2.727328491E-1,-3.370989990E-1,-1.618733826E0,1.675803730E0
1.448950279E1,-5.102888489E-1,-5.028044128E-1,-3.604205017E0,3.674710981E0
1.449947579E1,-5.926176453E-1,-6.762936401E-1,-4.472848663E0,4.562339743E0
1.450944979E1,-2.176473999E-1,-6.239025879E-1,-2.844834137E0,2.920566058E0
1.451942379E1,4.999603271E-2,-2.496807861E-1,-1.250499573E0,1.276161933E0
1.452939679E1,2.061213684E-1,-1.718426514E-1,-9.795629883E-1,1.015657208E0
1.453937079E1,4.508624268E-1,-4.077520752E-1,-5.992039490E-1,8.535713533E-1
1.454934479E1,8.271798706E-1,-8.132588196E-1,1.263372803E-1,1.166866554E0
1.455931875E1,1.676363983E0,-2.503244476E0,4.445755005E-2,3.013039261E0
1.456929275E1,2.338137817E0,-4.345762939E0,6.339317322E-1,4.975380731E0
1.457926675E1,3.200793915E0,-4.451892242E0,2.491419067E0,6.022590406E0
1.458923975E1,4.034260712E0,-4.841831360E0,2.611170044E0,6.821788578E0
1.459921375E1,5.676645355E0,-8.232729950E0,-7.435038757E-1,1.002770876E1
1.460918775E1,7.745493164E0,-1.525387939E1,-2.615660706E0,1.730650692E1
1.461916075E1,8.706345062E0,-2.236439301E1,3.552712097E0,2.426083845E1
1.462913475E1,1.434811295E1,-3.871638885E1,-2.180216217E0,4.134707310E1
1.463910875E1,1.160716278E1,-5.139442474E1,-8.168214111E0,5.331822244E1
1.464908175E1,-8.750802612E-1,-4.153742249E1,-1.417971313E1,4.389974370E1
1.465905575E1,-4.372108154E0,-3.409879120E1,-1.928694260E1,3.941863830E1
1.466902975E1,-5.154830475E0,-3.158237411E1,-1.314401688E1,3.459456332E1
1.467900275E1,-1.690883789E0,-2.982263351E1,-8.681197357E0,3.110645826E1
1.468897675E1,2.804717560E0,-2.899500458E1,-5.028343506E0,2.956113952E1
1.469895075E1,5.685327301E0,-2.687945389E1,-3.967050476E0,2.775906117E1
1.470892375E1,6.441554718E0,-2.419658295E1,-3.164569244E0,2.523851723E1
1.471889775E1,6.400240631E0,-2.187206680E1,-2.278711395E0,2.290290182E1
1.472887175E1,6.399492188E0,-1.921194855E1,-2.156864777E0,2.036429554E1
1.473884475E1,7.046297150E0,-1.549442917E1,-3.266956329E0,1.733206977E1
1.474881875E1,7.222331085E0,-1.161883850E1,-4.127067719E0,1.428958230E1
1.475879175E1,6.785838776E0,-8.228538666E0,-3.909120941E0,1.135947547E1
1.476876575E1,5.171146545E0,-5.875881042E0,-3.497776337E0,8.573282564E0
1.477873975E1,2.754871216E0,-4.157155151E0,-2.567011871E0,5.608993164E0
1.478871275E1,3.641926575E-1,-3.264561310E0,-1.746717682E0,3.720352066E0
1.479868675E1,-1.126856689E0,-2.706372070E0,-1.637594604E-1,2.936166368E0
1.480866075E1,-2.203717346E0,-2.230361938E0,1.356030121E0,3.416094584E0
1.481863375E1,-2.026635590E0,-1.381028137E0,1.700463867E0,2.984303586E0
1.482860775E1,-1.449585571E0,-4.745132446E-1,8.008346558E-1,1.722729606E0
1.483858175E1,-9.425898743E-1,1.014889526E-1,-2.194436646E-1,9.731039002E-1
1.484855475E1,-6.370751953E-1,4.031117249E-1,-6.240522766E-1,9.786751816E-1
1.485852875E1,-3.938310242E-1,5.593867493E-1,-7.625143433E-1,1.024424001E0
1.486850275E1,-2.884501648E-1,6.661148071E-1,-9.096583557E-1,1.163782951E0
1.487847575E1,-4.125421143E-1,6.496490479E-1,-1.324745178E0,1.532052437E0
1.488844975E1,-1.268162842E0,1.313368835E0,-8.791667633E0,8.979231285E0
1.489842375E1,-1.831890564E0,1.572779388E0,-8.546776886E0,8.881264166E0
1.490839675E1,-4.114942932E-1,7.107220459E-1,2.301164703E0,2.443319949E0
1.491837075E1,5.574407959E-1,1.618135071E-1,6.670877838E0,6.696083556E0
1.492834475E1,-3.493734741E-1,-5.848338318E-1,3.579207001E0,3.643461979E0
1.493831775E1,-8.419990540E-1,-7.494914246E-1,1.211580505E0,1.654879791E0
1.494829175E1,-7.194039917E-1,-3.805087280E-1,1.344204712E-1,8.248623270E-1
1.495826575E1,-7.964936829E-1,-2.815644836E-1,-3.104544067E-1,9.000348237E-1
1.496823875E1,-1.056502991E0,-1.981878662E-1,-4.062551880E-1,1.149138929E0
1.497821275E1,-1.230890350E0,-2.052232361E-1,-4.537065125E-1,1.327801653E0
1.498818575E1,-1.005309448E0,-2.080673218E-1,-1.099912720E0,1.504575385E0
1.499815975E1,-3.574566650E-1,-5.643264771E-2,-2.546953583E0,2.572534249E0
1.500813375E1,-1.416055298E-1,5.987548828E-3,-1.995051270E0,2.000079385E0
1.501810675E1,-3.908372498E-1,-3.324586487E-1,-2.492317200E-1,5.704375155E-1
1.502808075E1,-7.458988953E-1,-1.071022797E0,-2.914439392E-1,1.337308701E0
1.503805475E1,-1.027463379E0,-1.802252197E0,-2.374811554E0,3.153335360E0
1.504802775E1,-1.184935913E0,-2.631677399E0,-4.373605042E0,5.240059170E0
1.505800175E1,-4.095483398E-1,-4.442162476E0,-3.592080231E0,5.727440762E0
1.506797575E1,1.769021301E0,-6.719676361E0,4.379891968E-1,6.962422086E0
1.507794875E1,3.658542023E0,-6.881489868E0,6.501430206E0,1.014930674E1
1.508792275E1,7.572902069E0,-9.458081818E0,-3.018473053E0,1.248660630E1
1.509789675E1,1.413241150E1,-1.980920654E1,-1.456306595E1,2.835864257E1
1.510786975E1,4.268972626E0,-2.625330597E1,1.054961197E1,2.861388674E1
1.511784375E1,9.744735718E-1,-2.935994568E1,1.264555344E1,3.198227682E1
1.512781775E1,1.149699188E1,-3.269980042E1,-9.911638641E0,3.605132938E1
1.513779075E1,8.843010864E0,-3.152504333E1,-1.610351257E1,3.648767347E1
1.514776475E1,5.256768494E0,-3.257076874E1,-6.663543091E0,3.365845210E1
1.515773875E1,5.571414185E0,-3.408217575E1,-7.166197815E0,3.527023889E1
1.516771175E1,2.611020355E0,-3.262031570E1,-8.300239563E0,3.376087085E1
1.517768575E1,1.118025055E0,-3.187726089E1,-5.463787994E0,3.236143880E1
1.518765975E1,1.392404480E0,-3.027349594E1,-2.542013855E0,3.041192498E1
1.519763275E1,1.637893982E0,-2.792562836E1,-1.776805115E0,2.802999201E1
1.520760675E1,3.114423523E0,-2.445000595E1,-1.898502045E0,2.472057311E1
1.521758075E1,5.166655884E0,-2.061393311E1,-2.180964661E0,2.136317341E1
1.522755375E1,6.949897614E0,-1.659509033E1,-2.458038483E0,1.815874591E1
1.523752775E1,7.765850830E0,-1.278715897E1,-2.430944824E0,1.515682573E1
1.524750175E1,7.678133240E0,-9.586514740E0,-2.404599609E0,1.251547419E1
1.525747475E1,6.783443756E0,-6.954837341E0,-2.178120575E0,9.956358816E0
1.526744875E1,5.298082581E0,-5.080285492E0,-2.193688202E0,7.661021318E0
1.527742275E1,2.600242767E0,-3.853736115E0,-1.988464966E0,5.056336362E0
1.528739575E1,-1.295256500E0,-3.215912476E0,-1.623823242E0,3.828391878E0
1.529736975E1,-3.960763550E0,-3.150348816E0,-1.427581329E0,5.258358490E0
1.530734275E1,-4.360731812E0,-2.683469696E0,-1.038540344E0,5.224515058E0
1.531731675E1,-3.354374542E0,-1.605860596E0,-1.579814758E0,4.040597913E0
1.532729075E1,-2.450554047E0,-5.113366699E-1,-1.676363983E0,3.012785510E0
1.533726375E1,-1.697919159E0,1.639091492E-1,-1.666185150E0,2.384526920E0
1.534723775E1,-1.426084442E0,5.429209900E-1,-2.242037659E0,2.712049576E0
1.535721175E1,-1.350940704E0,8.928932190E-1,-3.732338562E0,4.068494836E0
1.536718475E1,-1.179996185E0,1.205293579E0,-5.909411316E0,6.145426406E0
1.537715875E1,-6.104306030E-1,1.282383270E0,-7.271578674E0,7.408980280E0
1.538713275E1,4.406835938E-1,8.957373047E-1,-6.690487061E0,6.764552051E0
1.539710575E1,1.449435883E0,-1.200503540E-1,-3.936963043E0,4.197017330E0
1.540707975E1,1.143472137E0,-8.045768738E-1,-1.017883301E-2,1.398204593E0
1.541705375E1,6.932084656E-1,-1.175655212E0,2.903811493E0,3.208554868E0
1.542702675E1,5.598358154E-1,-1.278191986E0,3.096161499E0,3.396087001E0
1.543700075E1,-1.046324158E-1,-1.075214081E0,2.122735748E0,2.381814501E0
1.544697475E1,-1.462458801E-1,-7.110214233E-1,7.385641479E-1,1.035575358E0
1.545694775E1,-1.372645569E-1,-2.993774414E-1,7.424560547E-2,3.376104574E-1
1.546692175E1,-3.135978699E-1,-1.448986816E-1,4.102967834E-1,5.363606086E-1
1.547689575E1,-2.621049500E-1,-2.796185303E-1,6.599775696E-1,7.631879976E-1
1.548686875E1,-2.962339783E-1,-4.433779907E-1,3.908372498E-1,6.611296154E-1
1.549684275E1,-4.180805969E-1,-6.391708374E-1,2.288740540E-1,7.973167987E-1
1.550681675E1,-6.114784241E-1,-7.186555481E-1,2.927911377E-1,9.879768774E-1
1.551678975E1,-2.585124207E-1,-6.430627441E-1,9.909393311E-1,1.209263876E0
1.552676375E1,7.719447327E-1,-1.020877075E0,1.575473785E0,2.029829136E0
1.553673675E1,1.444346466E0,-1.983375549E0,1.907782745E0,3.107981706E0
1.554671075E1,1.610800323E0,-2.807262268E0,1.255289612E0,3.471476794E0
1.555668479E1,1.718725891E0,-3.610491943E0,5.047503662E-1,4.030439640E0
1.556665779E1,2.589764557E0,-5.375172272E0,-7.831713867E-1,6.017700128E0
1.557663179E1,4.613705750E0,-8.579259338E0,-2.691403198E-1,9.744865728E0
1.558660579E1,5.828280029E0,-1.245634689E1,3.150049438E0,1.410858737E1
1.559657879E1,1.000938538E1,-1.884356461E1,-6.921606445E-1,2.134822730E1
1.560655279E1,1.583706665E1,-2.699666016E1,-7.399861908E0,3.216193862E1
1.561652679E1,1.217298615E1,-3.236853928E1,-3.868106232E0,3.479750239E1
1.562649979E1,7.388036499E0,-3.638543610E1,-8.281079407E0,3.804023290E1
1.563647379E1,4.358935547E0,-3.649740326E1,-1.710418167E1,4.054150706E1
1.564644779E1,4.775070190E-1,-3.550990677E1,-2.049867279E1,4.100459825E1
1.565642079E1,1.592687988E-1,-3.358940048E1,-1.717154160E1,3.772446199E1
1.566639479E1,2.634371796E0,-3.148372925E1,-1.057116714E1,3.331538229E1
1.567636879E1,4.383484497E0,-2.963207977E1,-6.285279694E0,3.060685918E1
1.568634179E1,4.330195312E0,-2.672602295E1,-3.650458832E0,2.731953045E1
1.569631579E1,3.451073456E0,-2.368674316E1,-2.200424194E0,2.403775315E1
1.570628979E1,2.667303314E0,-2.037667648E1,-1.989961853E0,2.064663168E1
1.571626279E1,3.109633484E0,-1.684132828E1,-2.250120850E0,1.727319317E1
1.572623679E1,4.405189362E0,-1.382285522E1,-1.560804291E0,1.459154310E1
1.573621079E1,5.325924683E0,-1.132904114E1,-1.764830017E0,1.264228112E1
1.574618379E1,5.701044617E0,-8.539442139E0,-2.874921570E0,1.066251170E1
1.575615779E1,5.329517212E0,-6.177503815E0,-3.767515411E0,8.986627814E0
1.576613179E1,4.279301147E0,-4.637057190E0,-3.840713196E0,7.386866423E0
1.577610479E1,2.655477905E0,-3.717818756E0,-3.152145081E0,5.550653819E0
1.578607879E1,5.399272156E-1,-3.128943329E0,-2.769690399E0,4.213430035E0
1.579605279E1,-1.141825562E0,-2.771636353E0,-1.840722198E0,3.517668531E0
1.580602579E1,-2.182162170E0,-2.247127075E0,-3.728746033E-1,3.154432960E0
1.581599979E1,-2.481838989E0,-1.480122070E0,-4.490661621E-4,2.889686196E0
1.582597379E1,-2.139051819E0,-7.714956665E-1,8.681945801E-2,2.275584730E0
1.583594679E1,-1.761836243E0,-2.246827698E-1,8.143066406E-2,1.777970823E0
1.584592079E1,-1.396895142E0,2.040257263E-1,-3.113525391E-1,1.445642742E0
1.585589379E1,-1.077609100E0,5.019062805E-1,-7.952961731E-1,1.430261267E0
1.586586779E1,-7.376660156E-1,6.035449219E-1,-1.164428558E0,1.504762935E0
1.587584179E1,-3.345542908E-1,6.756948853E-1,-2.481689301E0,2.593698505E0
1.588581479E1,6.978488159E-1,1.038690033E0,-7.966882782E0,8.064557720E0
1.589578879E1,1.502575378E0,6.863227844E-1,-7.573800201E0,7.751852761E0
1.590576279E1,1.293310547E0,-4.153862000E-1,-2.066153412E0,2.472688372E0
1.591573579E1,9.207353210E-1,-1.231339417E0,2.562221832E0,2.988131692E0
1.592570979E1,-5.478607178E-2,-1.317560120E0,2.419568481E0,2.755590285E0
1.593568379E1,-7.831713867E-1,-1.037043457E0,1.406774597E0,1.915158302E0
1.594565679E1,-1.187630310E0,-6.406677246E-1,1.030307465E0,1.697779243E0
1.595563079E1,-1.133742371E0,-4.028123474E-1,1.742376709E-1,1.215725428E0
1.596560479E1,-1.010698242E0,-2.787203979E-1,-9.156459045E-1,1.391978240E0
1.597557779E1,-9.506730652E-1,-2.722837830E-1,-1.226699066E0,1.575661237E0
1.598555179E1,-8.870553589E-1,-5.125341797E-1,-9.291178894E-1,1.383046835E0
1.599552579E1,-7.177574158E-1,-7.505392456E-1,-5.707630920E-1,1.185012816E0
1.600549879E1,-6.008505249E-1,-1.007854156E0,-6.282435608E-1,1.330970069E0
1.601547279E1,-2.724334717E-1,-1.308578796E0,-2.998265076E-1,1.369851962E0
1.602544679E1,7.755372620E-1,-1.712588654E0,1.316362610E0,2.295044327E0
1.603541979E1,1.766027527E0,-2.568059692E0,1.535057831E0,3.474217373E0
1.604539379E1,2.729124756E0,-2.990032196E0,-3.815565491E-1,4.066202143E0
1.605536779E1,4.011358337E0,-3.098406830E0,-7.068301392E-1,5.117687900E0
1.606534079E1,4.367168427E0,-4.465364227E0,-2.874023438E-1,6.252538513E0
1.607531479E1,4.328399048E0,-7.412735138E0,1.557511139E0,8.724077114E0
1.608528879E1,5.081632690E0,-1.077219910E1,1.871109009E0,1.205671237E1
1.609526179E1,1.098490677E1,-1.983495300E1,-2.313738556E0,2.279137827E1
1.610523579E1,1.551733154E1,-3.860202667E1,-3.844156036E0,4.178135442E1
1.611520879E1,8.982820129E0,-4.891557953E1,-6.888076172E0,5.020827194E1
1.612518279E1,4.671635284E0,-4.109584076E1,-1.896750687E1,4.550229248E1
1.613515679E1,3.493585052E0,-3.625595535E1,-2.013103729E1,4.161680066E1
1.614512979E1,2.589465179E0,-3.194611771E1,-1.427895676E1,3.508772396E1
1.615510379E1,3.211122437E0,-2.784404800E1,-7.363038483E0,2.897959027E1
1.616507779E1,3.763174438E0,-2.674638062E1,-1.066681824E0,2.703087435E1
1.617505079E1,3.467239838E0,-2.493065643E1,6.572831726E-1,2.517918592E1
1.618502479E1,3.458258514E0,-2.190230392E1,-3.968247986E-1,2.217719412E1
1.619499879E1,5.035827942E0,-1.785816376E1,-1.352587280E0,1.860384552E1
1.620497179E1,6.140979767E0,-1.484507950E1,-3.662882996E-1,1.606929323E1
1.621494579E1,6.687343597E0,-1.306363403E1,-1.761686554E0,1.478115821E1
1.622491979E1,7.203769684E0,-1.068148773E1,-2.894979858E0,1.320490008E1
1.623489279E1,6.668333130E0,-8.929980011E0,-2.809657288E0,1.149371062E1
1.624486679E1,6.088289337E0,-7.313042450E0,-3.521277466E0,1.014629252E1
1.625484079E1,4.254452820E0,-5.673801270E0,-3.883374481E0,8.085356331E0
1.626481379E1,1.193318481E0,-4.870721283E0,-3.177143097E0,5.936511861E0
1.627478779E1,-1.516047363E0,-4.457730103E0,-1.796264648E0,5.039476556E0
1.628476179E1,-2.549797668E0,-3.773802338E0,-9.626481628E-1,4.655077198E0
1.629473479E1,-2.543959808E0,-2.779719543E0,-5.227130127E-1,3.804182059E0
1.630470879E1,-2.212548981E0,-1.800455933E0,-2.933898926E-1,2.867593449E0
1.631468279E1,-1.874701538E0,-8.894503784E-1,-5.289999390E-1,2.141370768E0
1.632465579E1,-1.551373901E0,-2.386038208E-1,-6.947053528E-1,1.716481370E0
1.633462979E1,-1.419049072E0,1.624122620E-1,-8.634045410E-1,1.668995331E0
1.634460379E1,-1.300196228E0,4.613406372E-1,-1.056053925E0,1.737410518E0
1.635457679E1,-1.281934204E0,6.743476868E-1,-1.163380737E0,1.857836065E0
1.636455079E1,-1.208437042E0,1.056502991E0,-3.393443298E0,3.753928086E0
1.637452479E1,-7.563771057E-1,1.603764954E0,-6.958729248E0,7.181091916E0
