"Time (s)","Acceleration x (m/s^2)","Acceleration y (m/s^2)","Acceleration z (m/s^2)","Absolute acceleration (m/s^2)"
-1.480708364E-3,9.746232605E-1,-8.802744598E0,-3.881877594E0,9.669910890E0
8.492291556E-3,6.864724731E-1,-1.081725540E1,-3.451672211E0,1.137533735E1
1.846529159E-2,6.099815369E-1,-1.299836975E1,-1.933828583E0,1.315558386E1
2.843729162E-2,-5.987548828E-3,-1.342513229E1,-1.755249939E0,1.353939125E1
3.841029166E-2,-5.921685791E-1,-1.264211060E1,-2.848426666E0,1.297255404E1
4.838229157E-2,-1.579665070E0,-1.415785858E1,-1.220412140E0,1.429789170E1
5.835529161E-2,-1.483415222E0,-1.584395233E1,-9.345066833E-1,1.594066024E1
6.832729164E-2,-1.317410431E0,-1.620335495E1,-3.276686096E-1,1.626012450E1
7.830029156E-2,-1.022373962E0,-1.557166855E1,7.514373779E-1,1.562327648E1
8.827329159E-2,3.297642517E-1,-1.478729965E1,1.428629150E0,1.485981012E1
9.824529162E-2,2.148033142E0,-1.462204330E1,9.201365662E-1,1.480759427E1
1.082182917E-1,2.840343475E0,-1.451651276E1,2.986289978E-1,1.479479209E1
1.181902916E-1,2.849474487E0,-1.429332687E1,-4.572990417E-1,1.458176328E1
1.281632916E-1,2.738854523E0,-1.391117157E1,-1.134790192E0,1.422356381E1
1.381352916E-1,2.629132690E0,-1.341944412E1,-1.423988800E0,1.374851131E1
1.481082916E-1,2.384691010E0,-1.343007202E1,-1.171613617E0,1.369037122E1
1.580812916E-1,2.432441711E0,-1.359562775E1,-7.466473389E-1,1.383167917E1
1.680532916E-1,2.467319183E0,-1.337768097E1,1.614093475E0,1.369873388E1
1.780262917E-1,2.149530029E0,-1.132065857E1,5.023553467E-1,1.153386972E1
1.879980416E-1,2.063159637E0,-9.501192169E0,-5.867797852E-1,9.740307533E0
1.979710417E-1,1.841770020E0,-8.198151855E0,-1.029409332E0,8.465311230E0
2.079430416E-1,8.620573425E-1,-7.773634644E0,-5.240602112E-1,7.838825010E0
2.179160416E-1,3.908372498E-1,-7.769742737E0,3.083587646E-2,7.779627678E0
2.278890416E-1,1.225950623E-1,-7.579787750E0,6.586303711E-3,7.580781969E0
2.378610416E-1,9.729766846E-2,-6.937922516E0,-3.293151855E-2,6.938682883E0
2.478340416E-1,-6.212081909E-2,-5.984105988E0,3.302133179E-1,5.993531872E0
2.578060416E-1,2.420466614E-1,-4.814288635E0,4.577481079E-1,4.842054830E0
2.677790417E-1,1.037941589E0,-3.210673370E0,6.286926270E-2,3.374862779E0
2.777510416E-1,2.103725281E0,-2.429897003E0,-3.317102051E-1,3.231112991E0
2.877240416E-1,1.911075897E0,-2.708916779E0,-3.397933960E-1,3.332551688E0
2.976970416E-1,1.670077057E0,-2.890638885E0,3.323089600E-1,3.354903842E0
3.076690416E-1,1.730102234E0,-2.940934296E0,7.878117371E-1,3.501856023E0
3.176420416E-1,1.672621765E0,-2.634222107E0,6.532415771E-1,3.188026699E0
3.276140416E-1,1.875749359E0,-2.664159851E0,2.555186462E-1,3.268252308E0
3.375870417E-1,2.002984772E0,-3.143163757E0,-1.142124939E-1,3.728869922E0
3.475590416E-1,1.913470917E0,-3.549568634E0,-3.692820740E-1,4.049342871E0
3.575320416E-1,1.720372467E0,-3.491190033E0,-9.333091736E-1,4.002393694E0
3.675040416E-1,1.915267181E0,-3.742667084E0,-2.328258362E0,4.805891413E0
3.774770416E-1,1.731000366E0,-4.367168427E0,-4.358336792E0,6.408090349E0
3.874500416E-1,7.271878052E-1,-5.307063904E0,-6.130501556E0,8.141055135E0
3.974220416E-1,1.475930786E-1,-6.436165924E0,-7.235054626E0,9.684628592E0
4.073950417E-1,-3.927832031E-1,-7.691305847E0,-7.967481537E0,1.108112026E1
4.173670416E-1,-5.363346863E-1,-9.953701172E0,-1.163725021E1,1.532283963E1
4.273400416E-1,7.421566772E-1,-1.390967468E1,-1.459150681E1,2.017280142E1
4.373130416E-1,1.764530640E0,-1.863205444E1,-1.469733673E1,2.379661169E1
4.472850416E-1,2.366878052E0,-2.005514511E1,-1.346734451E1,2.427303700E1
4.572580416E-1,1.844763794E0,-1.600846024E1,-1.186372925E1,2.001054782E1
4.672300416E-1,2.559826813E0,-1.146181503E1,-9.719288635E0,1.524435924E1
4.772030417E-1,3.220103760E0,-7.995772705E0,-7.147636414E0,1.119777459E1
4.871750416E-1,2.451152802E0,-4.499044189E0,-5.550308075E0,7.553507027E0
4.971480416E-1,5.043013000E-1,-1.008153534E0,-5.894442444E0,6.001261957E0
5.071200416E-1,-1.531465302E0,1.049766998E0,-6.088289337E0,6.365113021E0
5.170930416E-1,-2.936593323E0,-2.844684448E0,-9.934840393E-1,4.207471983E0
5.270660416E-1,5.403762817E-1,-7.850424957E0,6.803651733E0,1.040244469E1
5.370380416E-1,6.584208069E0,-1.150717072E1,6.806645508E0,1.490292578E1
5.470110417E-1,8.078101501E0,-1.560774353E1,2.796634369E0,1.779546419E1
5.569830416E-1,6.549031219E0,-1.904250092E1,-2.255509644E0,2.026311858E1
5.669560416E-1,2.446662140E0,-2.445913696E1,-1.547422119E1,2.904629164E1
5.769280416E-1,4.236639862E0,-2.158466446E1,-4.505331116E0,2.245317050E1
5.869010416E-1,7.059918823E0,-9.901759186E0,7.140002289E0,1.410201835E1
5.968740416E-1,7.726782074E0,-3.163521423E0,1.070274353E-1,8.349999035E0
6.068460416E-1,7.943681030E0,-1.453178101E0,-4.907095642E0,9.449517583E0
6.168190417E-1,6.844516754E0,-3.348836060E0,-2.477647705E0,8.012543335E0
6.267910416E-1,3.291355591E0,-7.873177643E0,2.500400391E0,8.892240996E0
6.367640416E-1,5.674699402E-1,-1.157393188E1,5.914351044E0,1.300989891E1
6.467360416E-1,1.063089294E0,-1.302261932E1,5.570665741E0,1.420391107E1
6.567090416E-1,6.222560120E-1,-1.322140594E1,3.958967285E0,1.381543339E1
6.666820416E-1,-1.820214844E-1,-1.347348175E1,3.738775177E0,1.398378640E1
6.766540416E-1,-5.010081482E-1,-1.333457062E1,2.865191803E0,1.364811734E1
6.866270417E-1,-6.242019653E-1,-1.244871277E1,-2.266287231E-1,1.246641241E1
6.965990416E-1,-1.314566345E0,-1.092203751E1,-2.383942566E0,1.125620585E1
7.065720416E-1,-1.134191437E0,-9.948462067E0,-2.065404968E0,1.022370703E1
7.165440416E-1,-2.929408264E-1,-9.592502289E0,-9.107061768E-1,9.640088186E0
7.265170416E-1,-5.044509888E-2,-9.563312988E0,-7.629634094E-1,9.593832039E0
7.364900416E-1,8.786727905E-2,-8.766519928E0,-1.525926819E0,8.898766485E0
7.464620416E-1,1.838177490E-1,-7.978558502E0,-1.730251923E0,8.166085749E0
7.564350417E-1,3.293151855E-1,-8.090525665E0,-5.057981873E-1,8.113007201E0
7.664070416E-1,4.113446045E-1,-8.539442139E0,5.005590820E-1,8.563984810E0
7.763800416E-1,2.056723022E-1,-8.831784210E0,-5.688171387E-2,8.834361831E0
7.863520416E-1,-1.706451416E-1,-9.244026947E0,-9.334588623E-1,9.292604555E0
7.963250416E-1,-1.790277100E-1,-9.302106171E0,-1.060245209E0,9.364045602E0
8.062980416E-1,1.330732727E-1,-8.919950867E0,-7.223977661E-1,8.950144719E0
8.162700416E-1,1.969903564E-1,-8.603957977E0,-4.607418823E-1,8.618537066E0
8.262430417E-1,3.772155762E-1,-8.411308594E0,-1.192570038E0,8.503800747E0
8.362150416E-1,1.220112762E0,-8.273894348E0,-2.181563416E0,8.643218253E0
8.461880416E-1,2.113155670E0,-7.917784882E0,-2.424807587E0,8.546135744E0
8.561600416E-1,2.562970276E0,-7.502398682E0,-2.475701752E0,8.305654807E0
8.661330416E-1,2.405946808E0,-7.486381989E0,-2.102976837E0,8.139840717E0
8.761050416E-1,1.976938934E0,-8.077053680E0,-1.763183441E0,8.500347025E0
8.860780416E-1,1.253343658E0,-8.910819855E0,-1.698368225E0,9.157403313E0
8.960510417E-1,-1.258882141E-1,-9.849817200E0,-1.322649536E0,9.939021506E0
9.060230416E-1,-1.003812561E0,-1.078522202E1,-7.177574158E-1,1.085558977E1
9.159960416E-1,-1.146615601E0,-1.152378616E1,-9.669891357E-2,1.158109345E1
9.259680416E-1,-5.239105225E-1,-1.145492935E1,-7.719447327E-1,1.149285810E1
9.359410416E-1,1.093326416E0,-1.078552139E1,-2.905458069E0,1.122339169E1
9.459130416E-1,2.453248444E0,-1.015129028E1,-5.113217010E0,1.162807424E1
9.558860416E-1,2.254461823E0,-9.853559418E0,-4.290976868E0,1.098124373E1
9.658590417E-1,3.903881836E-1,-1.024185196E1,-1.657203827E0,1.038240141E1
9.758310416E-1,-1.503174133E0,-1.059885956E1,9.355545044E-2,1.070533087E1
9.858040416E-1,-2.183359680E0,-1.068972061E1,5.194198608E-1,1.092277361E1
9.957760416E-1,-2.310744781E0,-1.043165726E1,-3.623963928E-1,1.069066629E1
1.005749042E0,-2.303110657E0,-1.024110352E1,-2.413281555E0,1.077072179E1
1.015721042E0,-1.601669312E0,-1.013093262E1,-3.743714905E0,1.091863277E1
1.025694042E0,-7.870632935E-1,-9.928403778E0,-3.733985138E0,1.063650860E1
1.035667042E0,-5.493576050E-1,-9.765093384E0,-3.426225128E0,1.036329394E1
1.045639042E0,-1.305285645E-1,-1.023766068E1,-1.752106476E0,1.038732934E1
1.055612042E0,8.008346558E-2,-1.075992462E1,1.442999268E-1,1.076119016E1
1.065584042E0,2.945874023E-1,-1.099194214E1,1.797761536E-1,1.099735846E1
1.075557042E0,7.987390137E-1,-1.097712296E1,-2.170935516E0,1.121820723E1
1.085529042E0,2.396516418E-1,-1.094389206E1,-2.406844940E0,1.120799308E1
1.095502042E0,-1.100361786E0,-1.129146927E1,3.008743286E-1,1.134894707E1
1.105475042E0,-1.216819611E0,-1.208362198E1,2.171384583E0,1.233732066E1
1.115447042E0,3.110531616E-1,-1.335792206E1,5.840853882E-1,1.337430340E1
1.125420042E0,1.667682037E0,-1.404020325E1,2.390528870E-1,1.414091994E1
1.135392042E0,2.951711884E0,-1.448118622E1,6.737489319E-1,1.479429941E1
1.145365042E0,4.167184296E0,-1.453776855E1,5.495072937E-1,1.513321175E1
1.155337042E0,4.252656555E0,-1.480825607E1,-3.367996216E-2,1.540683842E1
1.165310042E0,3.471431122E0,-1.514595383E1,-4.219725037E-1,1.554441418E1
1.175282042E0,2.887495422E0,-1.510389130E1,-6.532415771E-1,1.539129256E1
1.185254917E0,3.189417572E0,-1.433209625E1,-6.921606445E-1,1.469899499E1
1.195227917E0,3.731141052E0,-1.396745453E1,-4.522096252E-1,1.446429027E1
1.205199917E0,4.076023865E0,-1.382120865E1,-6.289920044E-1,1.442343267E1
1.215172917E0,4.048181763E0,-1.348141525E1,-1.381327515E0,1.414370526E1
1.225144917E0,4.227209473E0,-1.250813919E1,-2.069296875E0,1.336431201E1
1.235117917E0,4.838089142E0,-1.129805557E1,-1.125958557E0,1.234183734E1
1.245089917E0,4.940027161E0,-1.054886353E1,2.342478790E0,1.188148126E1
1.255062917E0,4.515060883E0,-9.469158783E0,4.832999725E0,1.155026533E1
1.265035917E0,2.356699219E0,-7.833659821E0,5.529501343E-1,8.199146983E0
1.275007917E0,9.529183960E-1,-7.054380341E0,-1.812880096E0,7.345670133E0
1.284980917E0,4.740641785E-1,-7.295977936E0,-8.978329468E-1,7.366283655E0
1.294952917E0,-1.586700439E0,-7.943681030E0,3.281176758E-1,8.107240456E0
1.304925917E0,-2.601140900E0,-8.793912964E0,2.797682190E-1,9.174808415E0
1.314897917E0,-2.434088287E0,-9.275910645E0,3.718267822E-1,9.597164124E0
1.324870917E0,-1.867965546E0,-8.357720032E0,3.987707520E-1,8.573202291E0
1.334842917E0,-9.645941162E-1,-6.516099701E0,1.639091492E0,6.787975990E0
1.344815917E0,-4.200265503E-1,-5.208269348E0,2.022294617E0,5.602871355E0
1.354788917E0,5.182223511E-1,-3.275787964E0,1.400038605E0,3.599923511E0
1.364760917E0,1.531465302E0,-1.502276001E0,5.333409119E-1,2.210581752E0
1.374733917E0,1.986069946E0,-5.833369446E-1,3.752696228E-1,2.103706993E0
1.384705917E0,2.030228119E0,-6.816824341E-1,-1.516346741E-1,2.146976998E0
1.394678917E0,1.400936737E0,-9.919871521E-1,-2.320175171E-2,1.716741265E0
1.404650917E0,1.251547394E0,-1.023272095E0,-2.814147949E-2,1.616863817E0
1.414623917E0,1.184187469E0,-1.264570312E0,-3.222798157E-1,1.762186800E0
1.424596917E0,8.771759033E-1,-2.030527496E0,-8.259823608E-1,2.361085839E0
1.434568917E0,6.641688538E-1,-2.791544952E0,-1.405277710E0,3.195097640E0
1.444541917E0,6.722520447E-1,-3.056643677E0,-2.694546661E0,4.129839596E0
1.454513917E0,1.030606842E0,-3.440744934E0,-4.573589172E0,5.815375661E0
1.464486917E0,9.882449341E-1,-4.628075867E0,-6.365063782E0,7.931566757E0
1.474458917E0,5.966592407E-1,-6.319708099E0,-8.501121826E0,1.060960815E1
1.484431917E0,1.022823029E0,-8.582851868E0,-9.566007385E0,1.289263396E1
1.494403917E0,1.412163391E0,-1.148741180E1,-1.069136719E1,1.575627392E1
1.504376917E0,1.690434723E0,-1.477023514E1,-1.227387634E1,1.927862692E1
1.514349917E0,2.459086304E0,-1.756282791E1,-1.195414124E1,2.138694748E1
1.524321917E0,2.606230316E0,-1.740775040E1,-1.132978958E1,2.093290095E1
1.534294917E0,2.283501434E0,-1.421893158E1,-1.030681686E1,1.770940055E1
1.544266917E0,2.229014740E0,-1.153471344E1,-8.560398560E0,1.453611173E1
1.554239917E0,2.712509308E0,-9.480535126E0,-6.172564087E0,1.163352055E1
1.564211917E0,3.513343964E0,-7.054979095E0,-4.233646088E0,8.946511892E0
1.574184917E0,3.935615845E0,-4.041595459E0,-4.489314423E0,7.209542976E0
1.584156917E0,2.958447876E0,-1.336869965E0,-5.747897186E0,6.601360254E0
1.594129917E0,4.305047607E-1,-2.511776733E-1,-5.452711029E0,5.475443556E0
1.604102917E0,-9.888436890E-1,-2.042801971E0,-2.607577515E0,3.456922364E0
1.614074917E0,5.701643372E-1,-4.611610107E0,3.635040894E0,5.899623501E0
1.624047917E0,4.233795776E0,-7.036717072E0,8.163873138E0,1.157969077E1
1.634019917E0,5.942791901E0,-1.118069962E1,7.584128723E0,1.475953346E1
1.643992917E0,7.394024048E0,-1.765533554E1,-1.008901978E0,1.916769021E1
1.653964917E0,4.440815277E0,-3.167727676E1,-2.414269501E1,4.007543419E1
1.663937917E0,4.059857483E0,-3.818918518E1,-6.885830841E0,3.901680374E1
1.673909917E0,8.604107666E0,-2.920651474E1,5.336103516E0,3.091157021E1
1.683882917E0,6.350993042E0,-1.364697098E1,1.880539398E0,1.516942181E1
1.693855917E0,3.990252228E0,-3.941154327E0,1.555864563E0,5.820268448E0
1.703827917E0,2.273771667E0,-6.023474121E-1,1.170116730E0,2.627172085E0
1.713800917E0,9.331594849E-1,-3.726351013E0,2.454745331E0,4.558755657E0
1.723772917E0,-7.903564453E-1,-1.056443115E1,5.102289734E0,1.175862362E1
1.733745917E0,-3.322939911E0,-1.547736465E1,6.035000153E0,1.694142772E1
1.743717917E0,-4.364324341E0,-1.733679794E1,4.537963257E0,1.844464693E1
1.753690917E0,-3.518283691E0,-1.559606781E1,2.969075775E0,1.626133642E1
1.763662917E0,-3.075205078E0,-1.244212646E1,2.365530853E0,1.303300171E1
1.773635917E0,-2.612367554E0,-9.334888000E0,2.237247620E0,9.948360424E0
1.783608917E0,-1.761686554E0,-7.344477081E0,2.421364746E0,7.931449448E0
1.793580917E0,-4.587959290E-1,-6.326294403E0,2.675386505E0,6.884053132E0
1.803553917E0,1.622925110E0,-6.071823578E0,1.713636475E0,6.514405379E0
1.813525917E0,4.713248749E0,-6.253246307E0,-2.678230591E0,8.275912170E0
1.823498917E0,6.637946320E0,-6.905889130E0,-4.381089478E0,1.053316576E1
1.833470917E0,5.781277771E0,-8.365803223E0,-1.431323547E0,1.026930004E1
1.843443917E0,4.779860229E0,-9.711953888E0,6.391708374E-2,1.082465692E1
1.853416917E0,4.137246552E0,-9.866133270E0,2.615061951E-1,1.070167184E1
1.863388917E0,4.042044525E0,-9.104367371E0,-2.784808960E0,1.034324853E1
1.873361917E0,3.200494537E0,-8.676257629E0,-5.047054596E0,1.053533919E1
1.883333917E0,1.999691620E0,-8.132438507E0,-4.597988434E0,9.553890322E0
1.893306917E0,7.514373779E-1,-7.508236542E0,-3.381767578E0,8.268895093E0
1.903278917E0,7.484436035E-3,-7.009324036E0,-2.077679443E0,7.310775015E0
1.913251917E0,1.956431580E-1,-6.473288727E0,-7.271878052E-1,6.516942941E0
1.923223917E0,5.721102905E-1,-6.309229889E0,5.155279541E-1,6.356057036E0
1.933196917E0,7.382647705E-1,-6.917265472E0,9.523196411E-1,7.021432132E0
1.943169917E0,8.619076538E-1,-7.991880798E0,1.233285370E0,8.132283585E0
1.953141917E0,7.081773376E-1,-8.916058960E0,9.265731812E-1,8.992005359E0
1.963114917E0,2.856060791E-1,-9.866432648E0,-7.414082336E-1,9.898371088E0
1.973086917E0,-2.068698120E-1,-1.033061737E1,-3.251837769E0,1.083230812E1
1.983059917E0,-5.348377991E-1,-1.001402573E1,-5.423222351E0,1.140079398E1
1.993031917E0,-5.081932068E-1,-9.434431000E0,-5.964945831E0,1.117351007E1
2.003004917E0,1.779798889E-1,-9.172625427E0,-5.094356232E0,1.049386485E1
2.012976917E0,5.405259705E-1,-9.276210022E0,-3.860472107E0,1.006198219E1
2.022949917E0,5.149291992E-2,-9.465865631E0,-2.161205750E0,9.709586704E0
2.032921917E0,-1.107546844E0,-9.688153381E0,-1.057101746E0,9.808386210E0
2.042894917E0,-2.509980469E0,-1.012778915E1,-1.232087860E0,1.050667196E1
2.052867917E0,-3.924089813E0,-1.110869934E1,-1.973196716E0,1.194550908E1
2.062839917E0,-4.969964905E0,-1.241967316E1,-2.352208557E0,1.358240471E1
2.072812917E0,-5.516029358E0,-1.379052246E1,-2.194586334E0,1.501403673E1
2.082784917E0,-5.700445862E0,-1.522109756E1,-8.000862122E-1,1.627319981E1
2.092757917E0,-5.406307526E0,-1.620874374E1,7.051835632E-1,1.710113501E1
2.102729917E0,-4.725672913E0,-1.608210709E1,1.604064331E0,1.683862153E1
2.112702917E0,-4.182602234E0,-1.522094788E1,1.833836517E0,1.589133009E1
2.122675917E0,-2.286495209E0,-1.389635239E1,7.228468323E-1,1.410174378E1
2.132647917E0,1.533710632E0,-1.308908112E1,-1.022523651E0,1.321823995E1
2.142620917E0,5.102439423E0,-1.355281677E1,-2.154170380E0,1.464083948E1
2.152592917E0,7.430398407E0,-1.345237564E1,-1.345252533E0,1.542682518E1
2.162565917E0,8.451275482E0,-1.394545029E1,-1.655557251E-1,1.630726984E1
2.172537917E0,8.461604004E0,-1.471619751E1,-3.956272888E-1,1.698003923E1
2.182510917E0,7.504943390E0,-1.533815414E1,-8.150550842E-1,1.709524678E1
2.192482792E0,9.106163635E0,-1.448762283E1,-8.143066406E-2,1.711198593E1
2.202455792E0,7.801177368E0,-1.450124451E1,-4.565505981E-2,1.646652802E1
2.212428792E0,4.662354584E0,-1.497590744E1,-7.779322815E-1,1.570415654E1
2.222400792E0,3.456761627E0,-1.479942444E1,-1.866917725E0,1.531200661E1
2.232373792E0,3.000061340E0,-1.431473236E1,-2.601140900E0,1.485523021E1
2.242345792E0,3.684737549E0,-1.371163651E1,-1.805844727E0,1.431248901E1
2.252318792E0,3.668271790E0,-1.265872604E1,1.457070007E0,1.325981206E1
2.262290792E0,2.114353180E0,-1.217343521E1,5.266498260E0,1.343127016E1
2.272263792E0,9.969268799E-1,-1.107172623E1,3.614832916E0,1.168948253E1
2.282235792E0,-2.745740204E0,-1.195653625E1,1.405577087E0,1.234801585E1
2.292208792E0,-3.795806580E0,-1.235635483E1,-4.033811646E0,1.354102244E1
2.302181792E0,-3.461701355E0,-1.269360352E1,-4.179458771E0,1.380502887E1
2.312153792E0,-3.847000122E0,-1.309297302E1,-1.203197937E0,1.369938093E1
2.322126792E0,-3.482508087E0,-1.258328293E1,-1.142124939E-1,1.305679579E1
2.332098792E0,-2.118095398E0,-9.778265991E0,7.077282715E-1,1.003003954E1
2.342071792E0,-9.159452820E-1,-6.781647491E0,1.333427124E0,6.971924150E0
2.352043792E0,-3.487747192E-1,-4.895569611E0,2.022743683E0,5.308459063E0
2.362016792E0,1.254990234E0,-2.697839813E0,3.084635468E0,4.285827355E0
2.371988792E0,2.633024597E0,-1.138233032E0,3.103196869E0,4.225899167E0
2.381961792E0,3.537294159E0,2.296224976E-1,2.412233734E0,4.287662306E0
2.391934792E0,3.843557281E0,2.553689575E-1,1.748963013E0,4.230486674E0
2.401906792E0,3.305875397E0,-4.746629333E-1,1.693278809E0,3.744503994E0
2.411879792E0,3.453169098E0,-2.478845215E-1,1.709894257E0,3.861290189E0
2.421851792E0,3.230581970E0,1.974394226E-1,1.385069733E0,3.520519899E0
2.431824792E0,3.102747803E0,-7.107220459E-1,8.815168762E-1,3.302914131E0
2.441796792E0,2.894381104E0,-2.107916565E0,1.196012878E-1,3.582605014E0
2.451769792E0,1.966161346E0,-3.015928345E0,-1.224753113E0,3.802845567E0
2.461741792E0,9.394464111E-1,-3.729045410E0,-2.946472778E0,4.844588844E0
2.471714792E0,2.897973633E-1,-4.726571045E0,-4.869972839E0,6.792723446E0
2.481687792E0,2.016307068E-1,-5.723946991E0,-8.508905640E0,1.025698295E1
2.491659792E0,-9.370513916E-2,-7.082671509E0,-1.232237549E1,1.421316130E1
2.501632792E0,8.083190918E-3,-8.868457947E0,-1.372196503E1,1.633835781E1
2.511604792E0,1.107696533E0,-1.013198044E1,-1.265184036E1,1.624663300E1
2.521577792E0,2.215991821E0,-1.080078964E1,-1.007060806E1,1.493267636E1
2.531549792E0,3.041674805E0,-1.180026123E1,-8.270900574E0,1.472772036E1
2.541522792E0,2.706521759E0,-1.229528183E1,-7.600145416E0,1.470582965E1
2.551495792E0,1.941462708E0,-1.203123093E1,-6.976392517E0,1.404243026E1
2.561467792E0,1.869312744E0,-1.085213287E1,-5.926326141E0,1.250537723E1
2.571440792E0,1.686393127E0,-9.416168976E0,-4.829706573E0,1.071607323E1
2.581412792E0,1.913770294E0,-7.672894135E0,-5.597909088E0,9.688777389E0
2.591385792E0,2.831511841E0,-6.297404480E0,-7.736960907E0,1.036992413E1
2.601357792E0,2.325264587E0,-7.154671783E0,-8.943751373E0,1.168703865E1
2.611330792E0,8.068222046E-2,-9.590556335E0,-5.254373474E0,1.093589142E1
2.621302792E0,1.125060425E0,-1.206550964E1,-2.026785278E-1,1.211954465E1
2.631275792E0,5.569617920E0,-1.386491776E1,1.424288177E0,1.500950315E1
2.641248792E0,7.215295715E0,-1.467533249E1,-2.176473999E-1,1.635460933E1
2.651220792E0,5.623206482E0,-1.522513916E1,-5.716761932E0,1.720775060E1
2.661193792E0,3.770359497E0,-1.530821640E1,-9.677076416E0,1.849872720E1
2.671165792E0,5.165009308E0,-1.259765305E1,-1.077908478E0,1.365796728E1
2.681138792E0,6.951693878E0,-7.261399841E0,5.038222961E0,1.124445046E1
2.691110792E0,6.383176117E0,-4.124672699E0,2.905607758E0,8.136363970E0
2.701083792E0,4.454287262E0,-5.156027985E0,1.315913544E0,6.939519295E0
2.711055792E0,1.776356049E0,-8.086334381E0,1.174757080E0,8.362075025E0
2.721028792E0,-3.860472107E-1,-1.091604996E1,2.553839264E0,1.121745399E1
2.731001792E0,-8.686436462E-1,-1.170865173E1,4.165238342E0,1.245777980E1
2.740973792E0,-8.301736450E-1,-1.268821472E1,3.498824158E0,1.318793963E1
2.750946792E0,-1.606459351E0,-1.552556442E1,1.320254517E0,1.566419274E1
2.760918792E0,-2.941982117E0,-1.781131119E1,-1.390608215E0,1.810612759E1
2.770891792E0,-3.444636841E0,-1.717693039E1,-3.920946350E0,1.795233358E1
2.780863792E0,-2.079924774E0,-1.310569656E1,-3.261268158E0,1.366459804E1
2.790836792E0,-2.404000854E-1,-1.028660889E1,-1.015488281E0,1.033940671E1
2.800809792E0,6.629713440E-1,-9.122180328E0,-6.566844177E-1,9.169784042E0
2.810781792E0,1.324445801E0,-8.224497070E0,-2.272574158E0,8.634877072E0
2.820754792E0,1.566791840E0,-7.915090485E0,-3.139571228E0,8.657967518E0
2.830726792E0,1.613494720E0,-7.848778381E0,-2.229763184E0,8.317363233E0
2.840699792E0,1.786235504E0,-7.820038147E0,-1.063388672E0,8.091627115E0
2.850671792E0,1.648072815E0,-7.966284027E0,-6.336323547E-1,8.159614891E0
2.860644792E0,9.107061768E-1,-8.547675018E0,-1.472487946E0,8.721258780E0
2.870616792E0,2.649490356E-1,-8.638536072E0,-2.193388824E0,8.916583314E0
2.880589792E0,-5.900729370E-1,-8.528365173E0,-1.120869141E0,8.621922421E0
2.890561792E0,-3.293151855E-2,-8.351882172E0,-8.023315430E-1,8.390396665E0
2.900534792E0,1.224453735E-1,-7.957751770E0,-1.158291321E0,8.042539704E0
2.910507792E0,2.806663513E-1,-7.918084259E0,-1.307231598E0,8.030173497E0
2.920479792E0,9.436376953E-1,-7.710915070E0,-1.692380676E0,7.950648757E0
2.930452792E0,1.609602814E0,-7.369026031E0,-1.680255890E0,7.727653313E0
2.940424792E0,2.329605560E0,-7.014712830E0,-1.495540009E0,7.541213302E0
2.950397792E0,2.856509857E0,-6.868616638E0,-1.622326355E0,7.613769493E0
2.960369792E0,3.019969940E0,-7.140151978E0,-1.907333679E0,7.983727855E0
2.970342792E0,2.555934906E0,-7.816894684E0,-1.984872437E0,8.460281575E0
2.980314792E0,1.639690247E0,-8.586294708E0,-1.611848145E0,8.888818558E0
2.990287792E0,6.608757019E-1,-9.502988434E0,-6.596781921E-1,9.548754955E0
3.000260792E0,-2.631527710E-1,-1.039902512E1,4.137396240E-1,1.041057891E1
3.010232792E0,-8.795709229E-1,-1.075902649E1,4.659809875E-1,1.080497266E1
3.020205792E0,-9.186396790E-1,-1.029319519E1,-1.107546844E0,1.039328755E1
3.030177792E0,-5.026547241E-1,-9.331744537E0,-3.551963654E0,9.997527878E0
3.040150792E0,-4.011657715E-2,-8.650062103E0,-4.664001160E0,9.827415253E0
3.050122792E0,3.390449524E-1,-8.679251404E0,-3.593277740E0,9.399787302E0
3.060095792E0,2.183958435E-1,-9.396110687E0,-1.784139862E0,9.566490884E0
3.070068792E0,-2.444416809E-1,-1.019440063E1,-2.206411743E-1,1.019971757E1
3.080040792E0,-9.858499146E-1,-1.074914703E1,5.610333252E-1,1.080883067E1
3.090013792E0,-1.556163940E0,-1.100975510E1,3.577560425E-2,1.111924608E1
3.099985792E0,-1.491648102E0,-1.107232498E1,-1.436113586E0,1.126427169E1
3.109958792E0,-9.568103027E-1,-1.139355698E1,-3.194207611E0,1.187146111E1
3.119930792E0,-8.283773804E-1,-1.259720398E1,-3.551963654E0,1.311457979E1
3.129903792E0,-1.304237823E0,-1.385414017E1,-2.133363647E0,1.407797842E1
3.139875792E0,-1.551523590E0,-1.427656174E1,-8.337661743E-2,1.436086321E1
3.149848792E0,-1.279838562E0,-1.380564102E1,1.553768921E-1,1.386570780E1
3.159820792E0,-3.742218018E-1,-1.269465134E1,-2.190095673E0,1.288761939E1
3.169793792E0,-3.098556519E-2,-1.208002945E1,-3.732937317E0,1.264368983E1
3.179766792E0,4.647834778E-1,-1.126736938E1,-1.780247955E0,1.141660717E1
3.189738708E0,1.832489319E0,-1.109268265E1,-6.327342224E-1,1.126081605E1
3.199711708E0,3.881278839E0,-1.209095673E1,-8.922944641E-1,1.272995481E1
3.209683708E0,4.214186554E0,-1.399379974E1,-7.402107239E-1,1.463330829E1
3.219656708E0,3.490291901E0,-1.517199966E1,3.423381042E-1,1.557205532E1
3.229628708E0,2.578388214E0,-1.592942459E1,9.782157898E-1,1.616637126E1
3.239601708E0,2.083666992E0,-1.646770523E1,9.731263733E-1,1.662750609E1
3.249574708E0,2.061962128E0,-1.591894638E1,9.723779297E-1,1.608135755E1
3.259546708E0,1.937271423E0,-1.531629959E1,1.839674377E-1,1.543942673E1
3.269519708E0,2.113754425E0,-1.489672211E1,-1.044078827E0,1.508212147E1
3.279491708E0,3.069965973E0,-1.474179428E1,-1.663041687E0,1.514961707E1
3.289464708E0,4.312532043E0,-1.443523178E1,-2.057172089E0,1.520545317E1
3.299436708E0,4.192781067E0,-1.350237167E1,-9.336085510E-1,1.416915943E1
3.309409708E0,3.223247223E0,-1.269375320E1,2.576142883E0,1.334755428E1
3.319381708E0,1.693129120E0,-1.170580765E1,5.820047150E0,1.318201683E1
3.329354708E0,-1.074016571E0,-1.088775879E1,2.573149109E0,1.123912360E1
3.339327708E0,-1.738634491E0,-1.025382706E1,-3.546275482E0,1.098817041E1
3.349299708E0,-1.224304047E0,-1.056742493E1,-3.028801575E0,1.106087831E1
3.359272708E0,-2.154170380E0,-1.113160172E1,-5.840853882E-1,1.135315650E1
3.369244708E0,-2.537074127E0,-1.134939880E1,6.737489319E-1,1.164901438E1
3.379217708E0,-1.545386353E0,-9.750124512E0,1.052012329E0,9.927732718E0
3.389189708E0,-9.313632202E-1,-7.832612000E0,1.516795807E0,8.032304632E0
3.399162708E0,2.700384521E-1,-6.434070282E0,1.642684021E0,6.645945527E0
3.409134708E0,9.279203796E-1,-4.994663544E0,1.265767822E0,5.235443470E0
3.419107708E0,5.526507568E-1,-3.464246063E0,1.313668213E0,3.745950856E0
3.429080708E0,1.409019928E0,-2.080373840E0,2.230212250E0,3.359633782E0
3.439052708E0,2.374661865E0,-1.081051941E0,1.869911499E0,3.210025123E0
3.449025708E0,2.601140900E0,-6.813830566E-1,5.337899780E-1,2.741377134E0
3.458997708E0,2.523003387E0,-9.157955933E-1,6.779402161E-1,2.768362440E0
3.468970708E0,2.326462097E0,-1.017733612E0,1.007255402E0,2.731807284E0
3.478942708E0,2.096091156E0,-7.774832153E-1,5.722599792E-1,2.307717437E0
3.488915708E0,1.965562592E0,-9.277706909E-1,-1.552272034E-1,2.179057191E0
3.498887708E0,1.886526947E0,-2.027982788E0,-9.404942322E-1,2.925102992E0
3.508860708E0,1.778152313E0,-2.852168884E0,-2.167792053E0,3.999501891E0
3.518832708E0,1.431323547E0,-3.313060455E0,-3.400778046E0,4.958865595E0
3.528805708E0,1.197809143E0,-3.749552765E0,-4.468807068E0,5.955176680E0
3.538778708E0,2.027533722E0,-4.983436890E0,-5.212161255E0,7.490805109E0
3.548750708E0,3.432512054E0,-7.093598785E0,-5.640869751E0,9.691268972E0
3.558723708E0,3.722010040E0,-9.233249359E0,-8.392148438E0,1.302053793E1
3.568695708E0,4.392914886E0,-1.102487366E1,-1.152932465E1,1.654602270E1
3.578668708E0,4.929249573E0,-1.367002304E1,-1.275288025E1,1.933398526E1
3.588640708E0,3.318149872E0,-1.632430344E1,-1.194501022E1,2.049820164E1
3.598613708E0,2.796185303E-1,-1.747032028E1,-9.707912292E0,1.998834256E1
3.608585708E0,-1.661544800E0,-1.613509689E1,-8.366551666E0,1.825106215E1
3.618558708E0,-2.442021790E0,-1.352811813E1,-7.937992859E0,1.587404111E1
3.628531708E0,-2.298470306E0,-1.062999481E1,-7.449708252E0,1.318248491E1
3.638503708E0,-9.063652039E-1,-7.449259186E0,-7.561825104E0,1.065336375E1
3.648476708E0,5.653742981E-1,-5.204676819E0,-9.127718811E0,1.052252629E1
3.658448708E0,7.062313843E-1,-7.077282715E0,-1.042971130E1,1.262400773E1
3.668421708E0,-5.769003296E-1,-1.214888626E1,-5.323230286E0,1.327648417E1
3.678393708E0,2.476300507E0,-1.610785355E1,1.390308838E0,1.635628224E1
3.688366708E0,5.990692291E0,-1.753648270E1,3.255280609E0,1.881524572E1
3.698338708E0,5.587580566E0,-1.514670227E1,3.959566040E0,1.662293023E1
3.708311708E0,3.774550781E0,-1.040740768E1,1.965712280E0,1.124390471E1
3.718284708E0,4.382286987E0,-8.528065796E0,-4.171674957E0,1.045634819E1
3.728256708E0,7.241940308E0,-6.019282837E0,-7.926017761E-1,9.450168404E0
3.738229708E0,9.129964142E0,-2.987337799E0,2.271226959E0,9.871114641E0
3.748201708E0,9.141789551E0,-1.981728973E0,1.306483154E0,9.444917371E0
3.758174708E0,7.441924438E0,-3.359913025E0,5.912704468E-2,8.165460850E0
3.768146708E0,2.841241608E0,-7.980205078E0,-2.432441711E-1,8.474402320E0
3.778119708E0,-1.219963074E-1,-1.241069183E1,1.978585510E0,1.256801319E1
3.788091708E0,-8.608598328E-1,-1.497680557E1,5.263055420E0,1.589797274E1
3.798064708E0,-1.916165314E0,-1.727527588E1,4.521497498E0,1.795969893E1
3.808037708E0,-4.361330566E0,-1.982836670E1,-1.489552460E0,2.035691766E1
3.818009708E0,-4.936284943E0,-1.817191132E1,-5.621709595E0,1.965168921E1
3.827982708E0,-2.641257477E0,-1.259540771E1,-3.838617554E0,1.342965083E1
3.837954708E0,-1.226848755E0,-9.861492920E0,-5.369334412E-1,9.952009747E0
3.847927708E0,-3.498225403E-1,-9.366622009E0,6.921606445E-1,9.398673844E0
3.857899708E0,-1.230441284E-1,-8.698860626E0,-2.836601257E-1,8.704354032E0
3.867872708E0,1.151106262E-1,-7.880811768E0,-1.403780823E0,8.005688301E0
3.877844708E0,8.777746582E-1,-7.774532776E0,-1.638193359E0,7.993592792E0
3.887817708E0,2.287992096E0,-8.109536133E0,-7.562274170E-1,8.459986054E0
3.897789708E0,3.091371460E0,-8.651708679E0,7.259902954E-2,9.187704348E0
3.907762708E0,2.752326508E0,-9.217232666E0,-1.190025330E-1,9.620126861E0
3.917735708E0,2.357896729E0,-9.272018738E0,-1.242266693E0,9.647447071E0
3.927707708E0,1.907034302E0,-8.569379883E0,-1.456471252E0,8.899008929E0
3.937680708E0,1.298699341E0,-8.175249481E0,-1.060843964E0,8.345460681E0
3.947652708E0,1.372196503E0,-8.138126678E0,-7.306306458E-1,8.285279127E0
3.957625708E0,1.700463867E0,-7.925269318E0,-7.608677673E-1,8.141276981E0
3.967597708E0,1.681154022E0,-7.966733093E0,-9.009764099E-1,8.191878510E0
3.977570708E0,1.748663635E0,-8.196505280E0,-1.135838013E0,8.457579518E0
3.987542708E0,1.815275116E0,-8.310867462E0,-1.527723083E0,8.642897636E0
3.997515708E0,1.755100250E0,-8.129444733E0,-1.676363983E0,8.484011124E0
4.007488708E0,1.409918060E0,-7.774682465E0,-1.460512848E0,8.035337836E0
4.017460708E0,1.264570312E0,-7.452252960E0,-1.185235291E0,7.651143375E0
4.027433708E0,1.229094086E0,-7.406148834E0,-1.099014587E0,7.587459778E0
4.037405708E0,8.970845032E-1,-7.804620209E0,-6.818321228E-1,7.885540708E0
4.047378708E0,3.698808289E-1,-8.504414978E0,-1.354682922E-1,8.513532616E0
4.057350708E0,-2.917433167E-1,-9.296867065E0,-6.069877625E-1,9.321227684E0
4.067323708E0,-6.761439514E-1,-9.777218170E0,-1.265019379E0,9.881874307E0
4.077295708E0,-4.520599365E-1,-9.945318604E0,-1.790277100E0,1.011527619E1
4.087268708E0,5.059478760E-2,-9.671537933E0,-2.656525726E0,1.002987212E1
4.097240708E0,5.415737915E-1,-9.500593414E0,-3.564687195E0,1.016177013E1
4.107213708E0,1.033899994E0,-9.993817749E0,-3.918251953E0,1.078415693E1
4.117186708E0,8.876541138E-1,-1.029334488E1,-3.666026459E0,1.096269258E1
4.127158708E0,-4.281097412E-1,-1.050021469E1,-2.650538177E0,1.083804130E1
4.137131708E0,-1.766626282E0,-1.089060287E1,-1.299447784E0,1.110921977E1
4.147103708E0,-2.977757721E0,-1.107801315E1,-1.024469604E0,1.151689865E1
4.157076708E0,-3.462749176E0,-1.102711899E1,-1.197210388E0,1.161986651E1
4.167048708E0,-3.620072021E0,-1.087024521E1,-2.278861084E0,1.168162489E1
4.177021708E0,-3.508104858E0,-1.060409866E1,-4.201463013E0,1.193339849E1
4.186993708E0,-2.526296539E0,-1.048823959E1,-4.869972839E0,1.183646820E1
4.196967167E0,-1.318458252E0,-9.995464325E0,-3.773353271E0,1.076502829E1
4.206940167E0,2.454895020E-2,-9.624086609E0,-3.162623291E0,1.013044085E1
4.216912167E0,4.731660461E-1,-1.022044647E1,-2.466870117E0,1.052458362E1
4.226885167E0,3.342549133E-1,-1.165266815E1,-1.699865112E0,1.178074458E1
4.236857167E0,5.777984619E-2,-1.341525284E1,-8.208929443E-1,1.344046920E1
4.246830167E0,-1.311273193E-1,-1.388392822E1,-6.560856628E-1,1.390003977E1
4.256802167E0,6.544390869E-1,-1.353635101E1,-7.617658997E-1,1.357355431E1
4.266775167E0,1.268911285E0,-1.487995697E1,-9.354048157E-1,1.496322951E1
4.276747167E0,1.506467285E0,-1.582104996E1,-4.568499756E-1,1.589917537E1
4.286720167E0,1.562301178E0,-1.632999161E1,6.071374512E-1,1.641578590E1
4.296692167E0,2.307152252E0,-1.613030685E1,1.247056732E0,1.634212046E1
4.306665167E0,3.515738983E0,-1.623508896E1,1.407672729E0,1.667093509E1
4.316638167E0,4.787194977E0,-1.629406631E1,1.310375061E0,1.703322975E1
4.326610167E0,5.433550873E0,-1.590442657E1,5.394781494E-1,1.681562655E1
4.336583167E0,5.745502167E0,-1.594798599E1,-9.630972290E-1,1.697871045E1
4.346555167E0,6.282585297E0,-1.658191772E1,-1.987716522E0,1.784325896E1
4.356528167E0,7.081773376E0,-1.627625336E1,-2.918630676E0,1.798850584E1
4.366500167E0,6.772666168E0,-1.422461975E1,-3.611839142E0,1.616335968E1
4.376473167E0,5.728287964E0,-1.192704758E1,-2.696342926E0,1.350325931E1
4.386445167E0,5.049299927E0,-1.017733612E1,2.116149445E0,1.155645658E1
4.396418167E0,3.682043152E0,-8.606352997E0,7.802374878E0,1.218621383E1
4.406390167E0,1.970502319E0,-6.615343323E0,3.116369476E0,7.573467197E0
4.416363167E0,3.842509460E-1,-6.460864563E0,5.140310669E-1,6.492661059E0
4.426336167E0,-8.984317017E-1,-8.117319946E0,-2.080074463E0,8.427619617E0
4.436308167E0,-1.217867432E0,-9.787995758E0,-2.822680206E0,1.025941449E1
4.446281167E0,-1.966311035E0,-1.064346680E1,-2.516417084E0,1.111225087E1
4.456253167E0,-2.353705444E0,-1.040725800E1,-1.055305481E0,1.072215547E1
4.466226167E0,-1.918410645E0,-8.297994232E0,6.891668701E-1,8.544703544E0
4.476198167E0,-1.113534393E0,-6.264023895E0,1.317410431E0,6.497193583E0
4.486171167E0,5.060975647E-1,-4.276457062E0,1.122964783E0,4.450311186E0
4.496143167E0,1.389859772E0,-2.234702911E0,-4.528083801E-1,2.670326331E0
4.506116167E0,1.189875641E0,-1.534758453E0,-1.130299530E0,2.246967863E0
4.516088167E0,1.096918945E0,-1.491199036E0,-3.091072083E-1,1.876819917E0
4.526061167E0,1.517544250E0,-1.780697021E0,3.879931641E-1,2.371573556E0
4.536034167E0,1.767374725E0,-1.963167572E0,3.604504395E-1,2.666001661E0
4.546006167E0,1.718426514E0,-1.869911499E0,1.374142456E-1,2.543313070E0
4.555979167E0,1.678609314E0,-1.786684570E0,-4.400848389E-2,2.451919193E0
4.565951167E0,1.719474335E0,-2.163750458E0,-6.421646118E-1,2.837390248E0
4.575924167E0,1.100212097E0,-2.508184204E0,-1.391506348E0,3.072091238E0
4.585896167E0,5.239105225E-3,-2.742596741E0,-2.319426727E0,3.591880381E0
4.595869167E0,-5.206173706E-1,-3.386557617E0,-3.660637665E0,5.013988737E0
4.605841167E0,-7.978408813E-2,-3.956871643E0,-5.318739624E0,6.629644778E0
4.615814167E0,-7.488926697E-1,-4.826413422E0,-6.796167297E0,8.369169414E0
4.625786167E0,-6.218069458E-1,-6.553072815E0,-8.765771484E0,1.096212374E1
4.635759167E0,8.023315430E-1,-9.123228149E0,-1.013557297E1,1.366041241E1
4.645732167E0,1.579964447E0,-1.197584610E1,-1.172002808E1,1.683081209E1
4.655704167E0,3.242407379E0,-1.551059555E1,-1.307845322E1,2.054599033E1
4.665677167E0,4.392016754E0,-1.800994812E1,-1.284074753E1,2.255067271E1
4.675649167E0,4.295766907E0,-1.654389679E1,-1.170356232E1,2.071539295E1
4.685622167E0,5.003794556E0,-1.241218872E1,-1.018796402E1,1.681948274E1
4.695594167E0,5.748346252E0,-9.474547577E0,-8.109835510E0,1.373244219E1
4.705567167E0,5.382057953E0,-7.628586273E0,-5.868097229E0,1.102707765E1
4.715539167E0,5.124144287E0,-6.391858063E0,-5.243745575E0,9.726745181E0
4.725512167E0,5.071753235E0,-6.757996674E0,-4.494703217E0,9.570556772E0
4.735484167E0,4.669090576E0,-9.085207214E0,-2.530637512E0,1.052356989E1
4.745457167E0,4.589755554E0,-1.202000427E1,1.930984497E-2,1.286649648E1
4.755430167E0,6.736591187E0,-1.266890488E1,7.562274170E-1,1.436853129E1
4.765402167E0,6.640341339E0,-1.167931274E1,-8.622070313E-1,1.346268473E1
4.775375167E0,2.580783234E0,-1.040980270E1,-9.277706909E-1,1.076499851E1
4.785347167E0,-7.988887024E-1,-9.679022369E0,-2.903661804E0,1.013671293E1
4.795320167E0,-1.261875916E0,-9.761949921E0,-6.309379578E-1,9.863370610E0
4.805292167E0,6.851252747E-1,-8.622818756E0,2.952610016E0,9.140038613E0
4.815265167E0,2.739752655E0,-7.125183105E0,2.537523193E0,8.044470328E0
4.825237167E0,3.642974396E0,-7.568710785E0,-1.242416382E-1,8.400719099E0
4.835210167E0,3.448528748E0,-9.686656494E0,-4.992118835E-1,1.029431285E1
4.845182167E0,3.723357239E0,-1.144025986E1,1.000070343E0,1.207240968E1
4.855155167E0,3.092119904E0,-1.254316635E1,2.018103333E0,1.307535731E1
4.865128167E0,1.695973206E0,-1.415486481E1,1.671573944E0,1.435376892E1
4.875100167E0,7.035369873E-2,-1.626397888E1,-1.776805115E-1,1.626510157E1
4.885073167E0,-1.269809418E0,-1.717588257E1,-1.949845276E0,1.733277977E1
4.895045167E0,-1.288819885E0,-1.567435501E1,-1.931583252E0,1.584542444E1
4.905018167E0,-8.773255920E-1,-1.268611908E1,-1.733395386E0,1.283401640E1
4.914990167E0,-4.757107544E-1,-1.095466965E1,-1.871707764E0,1.112359554E1
4.924963167E0,-1.648072815E-1,-1.008258316E1,-1.370849304E0,1.017668278E1
4.934935167E0,-2.839595032E-1,-9.021140442E0,-4.251159668E-1,9.035614614E0
4.944908167E0,-2.802172852E-1,-7.715705109E0,3.508703613E-1,7.728760383E0
4.954880167E0,2.194436646E-1,-6.871909790E0,6.863227844E-1,6.909583102E0
4.964853167E0,1.209185486E0,-6.879094849E0,4.553530884E-1,6.999387253E0
4.974826167E0,2.270927582E0,-7.395221558E0,-2.764750671E-1,7.740985236E0
4.984798167E0,2.682571564E0,-7.770191803E0,-4.123924255E-1,8.230561242E0
4.994771167E0,2.695594482E0,-8.175848236E0,-1.583706665E-1,8.610215169E0
5.004743167E0,2.249971161E0,-8.763975220E0,2.424957275E-2,9.048216394E0
5.014716167E0,1.639241180E0,-8.867260437E0,-4.330494690E-1,9.027898490E0
5.024688167E0,1.620380402E0,-8.674760742E0,-1.550475769E0,8.959971076E0
5.034661167E0,1.852397919E0,-8.382268982E0,-2.831511841E0,9.039428668E0
5.044633167E0,1.549128571E0,-8.007448425E0,-3.315305786E0,8.803992394E0
5.054606167E0,1.510508881E0,-7.870333557E0,-3.462599487E0,8.730027640E0
5.064578167E0,1.337768097E0,-7.822283478E0,-3.348536682E0,8.613387266E0
5.074551167E0,1.156944122E0,-7.972870331E0,-2.755769348E0,8.514660634E0
5.084523167E0,1.175954590E0,-8.308771820E0,-1.915416870E0,8.607402636E0
5.094496167E0,1.010398865E0,-8.837771759E0,-6.921606445E-1,8.922230769E0
5.104469167E0,8.605604553E-1,-9.091643829E0,2.953358459E-1,9.137055055E0
5.114441167E0,9.659413147E-1,-9.093739471E0,7.596702576E-1,9.176395757E0
5.124414167E0,1.012943573E0,-9.041498108E0,8.488847351E-1,9.137578892E0
5.134386167E0,8.240364075E-1,-9.320368195E0,7.520361328E-1,9.386898190E0
5.144359167E0,4.194277954E-1,-9.995164948E0,3.664379883E-1,1.001067025E1
5.154331167E0,-1.029858398E-1,-1.018826340E1,-2.438429260E-1,1.019170135E1
5.164304167E0,-5.450166321E-1,-9.942624207E0,-1.313817902E0,1.004385069E1
5.174276167E0,-5.740562439E-1,-9.779463501E0,-2.822530518E0,1.019480875E1
5.184249167E0,1.631607056E-2,-9.577234039E0,-4.028572540E0,1.039004691E1
5.194220417E0,1.140328674E0,-9.447304230E0,-4.412224731E0,1.048902444E1
5.204193417E0,2.124382324E0,-9.689201202E0,-3.919150085E0,1.066552191E1
5.214166417E0,1.959575043E0,-1.021984772E1,-2.721191254E0,1.075593341E1
5.224138417E0,7.442523193E-1,-1.095766342E1,-1.411864014E0,1.107328583E1
5.234111417E0,-6.011499023E-1,-1.181657730E1,-8.536747742E-1,1.186261527E1
5.244083417E0,-1.706152039E0,-1.229453339E1,-8.446934509E-1,1.244106157E1
5.254056417E0,-2.557581482E0,-1.242191849E1,-1.319655762E0,1.275095186E1
5.264028417E0,-2.519261169E0,-1.193183762E1,-2.079176331E0,1.237086901E1
5.274001417E0,-1.496138763E0,-1.076246933E1,-3.039878540E0,1.128317503E1
5.283973417E0,-2.058219910E-1,-9.402098236E0,-3.457959137E0,1.001994488E1
5.293946417E0,5.801934814E-1,-8.026159515E0,-3.165916443E0,8.647478706E0
5.303918417E0,1.081800385E0,-7.120692444E0,-3.433709564E0,7.979029661E0
5.313891417E0,1.534608765E0,-7.360643463E0,-4.750521240E0,8.893905121E0
5.323864417E0,1.374292145E0,-8.955576782E0,-5.450465698E0,1.057348621E1
5.333836417E0,7.228468323E-1,-1.018766464E1,-4.325405273E0,1.109144486E1
5.343809417E0,3.671864319E-1,-1.121722366E1,-3.736080780E0,1.182874601E1
5.353781417E0,9.882449341E-1,-1.388377853E1,-1.645378418E0,1.401581980E1
5.363754417E0,8.575666809E-1,-1.743843658E1,-4.593946838E-1,1.746555280E1
5.373726417E0,-6.245013428E-1,-1.911569870E1,1.037043457E0,1.915399169E1
5.383699417E0,-2.136806488E0,-1.827953751E1,2.702330475E0,1.860134467E1
5.393671417E0,-2.372117157E0,-1.766970566E1,3.116668854E0,1.809859283E1
5.403644417E0,-8.376580811E-1,-1.751417908E1,2.772085419E0,1.775197446E1
5.413616417E0,1.070573730E0,-1.702394852E1,1.973047028E0,1.717130938E1
5.423589417E0,3.095113678E0,-1.685674622E1,8.565188599E-1,1.715993142E1
5.433561417E0,4.588408356E0,-1.701945786E1,-9.774673462E-1,1.765420288E1
5.443534417E0,4.997208252E0,-1.731853592E1,-3.034938812E0,1.827880276E1
5.453507417E0,4.396956482E0,-1.751343063E1,-3.803440704E0,1.845317425E1
5.463479417E0,5.372028809E0,-1.539608368E1,-1.251996460E0,1.635437499E1
5.473452417E0,4.600832520E0,-1.333666626E1,2.031874695E0,1.425352032E1
5.483424417E0,3.701652374E0,-1.156105865E1,4.911137238E0,1.309502106E1
5.493397417E0,3.754193115E-1,-1.049258057E1,2.407743073E0,1.077183426E1
5.503369417E0,-4.068539429E-1,-9.779164124E0,-2.932252350E0,1.021742066E1
5.513342417E0,-7.370672607E-1,-9.583071899E0,-2.685864716E0,9.979599413E0
5.523314417E0,-1.150357819E0,-1.049946625E1,-1.130149841E0,1.062258694E1
5.533287417E0,-1.073717194E0,-1.108160568E1,5.066963196E-1,1.114502554E1
5.543259417E0,-3.966751099E-1,-1.046428940E1,1.087039490E0,1.052807478E1
5.553232417E0,2.267784119E-1,-9.027577057E0,1.452130280E0,9.146434186E0
5.563204417E0,8.876541138E-1,-6.677015076E0,1.516795807E0,6.904428265E0
5.573177417E0,1.542841644E0,-4.212689667E0,1.369502106E0,4.690698305E0
5.583150417E0,2.347717896E0,-2.053280182E0,1.706601105E0,3.555309572E0
5.593122417E0,2.104773102E0,-2.483335876E-1,6.560856628E-1,2.218600410E0
5.603095417E0,1.917063446E0,-6.092330933E-2,5.837860107E-1,2.004906485E0
5.613067417E0,1.883982239E0,-2.255809021E-1,1.192570038E0,2.241093286E0
5.623040417E0,1.770368500E0,-3.237767029E-1,1.266516266E0,2.200704303E0
5.633012417E0,1.606908417E0,-8.595126343E-1,1.142574005E0,2.150904922E0
5.642985417E0,1.771416321E0,-1.477277985E0,9.397457886E-1,2.490660188E0
5.652957417E0,2.130968628E0,-1.686243439E0,5.342390442E-1,2.769450412E0
5.662930417E0,1.800306244E0,-1.963916016E0,-3.457809448E-2,2.664444470E0
5.672902417E0,1.290167084E0,-2.265688477E0,-8.717871094E-1,2.749161352E0
5.682875417E0,1.260528717E0,-2.699935455E0,-1.994452515E0,3.585585718E0
5.692847417E0,1.761387177E0,-3.157833252E0,-3.946692810E0,5.352642317E0
5.702820417E0,1.944007416E0,-3.634891205E0,-6.079607391E0,7.345285899E0
5.712793417E0,2.437231750E0,-4.936883698E0,-7.369175720E0,9.198786335E0
5.722765417E0,1.727258148E0,-7.415130157E0,-1.138936569E1,1.369982580E1
5.732738417E0,1.914219360E0,-1.080722626E1,-1.436412964E1,1.807729502E1
5.742710417E0,3.443289642E0,-1.493773682E1,-1.549412979E1,2.179587765E1
5.752683417E0,2.998714142E0,-1.832055222E1,-1.503847733E1,2.389122685E1
5.762655417E0,-2.698887634E-1,-1.672352325E1,-1.344025085E1,2.145668691E1
5.772628417E0,-1.654060364E0,-1.317664902E1,-1.115959351E1,1.734636914E1
5.782600417E0,-1.266067200E0,-1.067100952E1,-8.442144470E0,1.366540060E1
5.792573417E0,-5.774990845E-1,-8.591234436E0,-6.696474609E0,1.090805145E1
5.802545417E0,4.370910645E-2,-6.602470093E0,-6.505471802E0,9.269071430E0
5.812518417E0,-2.038161621E0,-4.010609894E0,-5.051694946E0,6.764518929E0
5.822490417E0,-3.570075989E0,-1.502276001E0,-1.042581940E0,4.011141091E0
5.832463417E0,-1.702559509E0,-4.227209473E-1,2.727029114E0,3.242543704E0
5.842436417E0,1.559008026E0,-1.811682587E0,5.447920990E0,5.949163213E0
5.852408417E0,5.704637146E0,-5.061574402E0,5.086422729E0,9.167012413E0
5.862381417E0,8.558751984E0,-9.883048096E0,3.194357300E0,1.345848408E1
5.872353417E0,1.165446442E1,-1.709400284E1,-1.738634491E0,2.076184779E1
5.882326417E0,1.383408188E1,-2.801169937E1,-1.356449249E1,3.405925101E1
5.892298417E0,1.180295563E1,-3.165452408E1,-7.494465179E0,3.460470581E1
5.902271417E0,7.289241943E0,-2.213716553E1,3.919299774E0,2.363362131E1
5.912243417E0,3.577710114E0,-1.087398743E1,3.833228760E0,1.207216861E1
5.922216417E0,2.084565125E0,-6.530769196E0,-8.692424011E-1,6.910277881E0
5.932188417E0,5.945635986E-1,-5.140909424E0,-1.962868195E0,5.534917084E0
5.942161417E0,-7.602690125E-1,-6.272107086E0,1.540596313E0,6.503135649E0
5.952133417E0,-6.735992432E-1,-9.178163910E0,5.035229187E0,1.049027939E1
5.962106417E0,3.502716064E-2,-1.138727005E1,6.004763031E0,1.287355138E1
5.972078417E0,-6.662644958E-1,-1.316197952E1,4.570296021E0,1.394880708E1
5.982051417E0,-1.474134521E0,-1.518427414E1,2.438129883E0,1.544926312E1
5.992024417E0,-2.147733765E0,-1.561388077E1,1.892065430E-1,1.576203769E1
6.001996417E0,-2.285896454E0,-1.368050125E1,-2.287543030E0,1.405753500E1
6.011969417E0,-9.542655945E-1,-1.025562332E1,-2.490221558E0,1.059668042E1
6.021941417E0,4.860392761E-1,-8.714727631E0,-8.430468750E-1,8.768890459E0
6.031914417E0,9.960287476E-1,-8.251141663E0,1.089733887E-1,8.311755964E0
6.041886417E0,1.349743195E0,-7.812553711E0,-9.039701843E-1,7.979659408E0
6.051859417E0,2.097588043E0,-7.545359344E0,-2.745740204E0,8.298880196E0
6.061831417E0,2.753374329E0,-7.743547211E0,-2.719993744E0,8.656902423E0
6.071804417E0,3.313808899E0,-7.787256317E0,-1.340312805E0,8.568496296E0
6.081776417E0,3.825594635E0,-7.870333557E0,-6.762936401E-1,8.776941250E0
6.091749417E0,2.632276154E0,-8.214617615E0,-1.881138153E0,8.828788199E0
6.101721417E0,1.250798950E0,-8.519383850E0,-2.970273285E0,9.108618039E0
6.111694417E0,2.767744446E-1,-8.737180939E0,-2.768043823E0,9.169351202E0
6.121667417E0,3.218307495E-2,-8.695417786E0,-2.054777069E0,8.934955793E0
6.131639417E0,-6.900650024E-2,-8.612041168E0,-1.426383820E0,8.729638353E0
6.141612417E0,2.189945984E-1,-8.225694580E0,-1.260528717E0,8.324598645E0
6.151584417E0,6.098318481E-1,-7.642956390E0,-1.122665405E0,7.749003477E0
6.161557417E0,1.038540344E0,-7.258855133E0,-9.273216248E-1,7.391175095E0
6.171529417E0,1.491947479E0,-7.133415985E0,-9.572593689E-1,7.350365732E0
6.181502417E0,1.964065704E0,-7.295379181E0,-1.009949799E0,7.622342821E0
6.191474583E0,2.064506836E0,-7.709867249E0,-1.168320465E0,8.066549087E0
6.201447583E0,1.468446350E0,-8.319998474E0,-1.406924286E0,8.564936966E0
6.211419583E0,5.260061646E-1,-9.015003204E0,-1.368304596E0,9.133412436E0
6.221392583E0,-3.444337463E-1,-9.891879730E0,-8.728349304E-1,9.936285021E0
6.231364583E0,-1.128203888E0,-1.076187057E1,-2.923420715E-1,1.082479405E1
6.241337583E0,-1.517394562E0,-1.111693222E1,1.697470093E-1,1.122129593E1
6.251309583E0,-1.299896851E0,-1.056667648E1,-2.094145203E-1,1.064839134E1
6.261282583E0,-4.102967834E-1,-9.399553528E0,-1.556463318E0,9.536379189E0
6.271255583E0,7.270381165E-1,-8.632249146E0,-2.861599274E0,9.123215449E0
6.281227583E0,1.673968964E0,-8.597820740E0,-3.176244965E0,9.317361517E0
6.291200583E0,1.741478577E0,-9.139993286E0,-2.678529968E0,9.682290416E0
6.301172583E0,7.514373779E-1,-1.014350647E1,-1.944755859E0,1.035555199E1
6.311145583E0,-3.064128113E-1,-1.128877487E1,-1.079405365E0,1.134440139E1
6.321117583E0,-1.004411316E0,-1.197973801E1,-7.909552002E-1,1.204776224E1
6.331090583E0,-1.481020203E0,-1.213242050E1,-1.017434235E0,1.226475522E1
6.341062583E0,-1.409618683E0,-1.196372131E1,-1.429676971E0,1.213101928E1
6.351035583E0,-1.093027039E0,-1.139640106E1,-2.976560211E0,1.182931004E1
6.361007583E0,-7.738906860E-1,-1.071561676E1,-3.587439880E0,1.132665327E1
6.370980583E0,-8.969348145E-1,-1.035890854E1,-3.354524231E0,1.092539752E1
6.380952583E0,-9.906399536E-1,-1.009994705E1,-2.611619110E0,1.047906734E1
6.390925583E0,-8.955876160E-1,-1.043495041E1,-1.768721924E0,1.062161214E1
6.400897583E0,1.631607056E-1,-1.092338470E1,-2.567011871E0,1.122214350E1
6.410870583E0,-1.359173584E-1,-1.192525131E1,-3.152893524E0,1.233575413E1
6.420843583E0,-1.746118927E0,-1.209350143E1,-2.744991760E0,1.252344553E1
6.430815583E0,-2.035916290E0,-1.129102020E1,-1.494492188E0,1.157003022E1
6.440788583E0,-1.628613281E-1,-1.267489243E1,-1.923949127E0,1.282111548E1
6.450760583E0,1.429377594E0,-1.437266190E1,-2.177521820E0,1.460678375E1
6.460733583E0,1.869312744E0,-1.510778320E1,-1.292113037E0,1.527772887E1
6.470705583E0,1.968706055E0,-1.566058365E1,-6.164181519E-1,1.579587462E1
6.480678583E0,2.115850067E0,-1.642444519E1,-2.326162720E-1,1.656180339E1
6.490650583E0,2.096091156E0,-1.691916641E1,1.207987976E-1,1.704894081E1
6.500623583E0,1.858535156E0,-1.672666672E1,4.589456177E-1,1.683585945E1
6.510595583E0,2.235750732E0,-1.626846954E1,2.579136658E-1,1.642340410E1
6.520568583E0,3.339705048E0,-1.561926956E1,-4.995112610E-1,1.598013526E1
6.530540583E0,3.596271515E0,-1.494761627E1,-1.526076508E0,1.544970260E1
6.540513583E0,3.731739807E0,-1.458581863E1,-2.239792328E0,1.522132244E1
6.550485583E0,3.765868835E0,-1.420845337E1,2.921923828E-1,1.470194857E1
6.560458583E0,4.105063477E0,-1.331585953E1,2.486479340E0,1.415437178E1
6.570431583E0,2.686313782E0,-1.239901611E1,2.570155334E-1,1.268928443E1
6.580403583E0,1.097368011E0,-1.104448288E1,-1.760938110E0,1.123769201E1
6.590376583E0,-1.024918671E0,-1.088102280E1,-2.200573883E0,1.114852640E1
6.600348583E0,-1.691931610E0,-1.134056717E1,-1.656156006E0,1.158507441E1
6.610321583E0,-1.178050232E0,-1.123982666E1,-1.684596863E0,1.142625802E1
6.620293583E0,-5.783972168E-1,-1.039258850E1,-5.655239868E-1,1.042402305E1
6.630266583E0,1.327738953E-1,-8.637039185E0,8.640032959E-1,8.681162162E0
6.640238583E0,6.643185425E-1,-7.012467499E0,8.128097534E-1,7.090604998E0
6.650211583E0,8.310717773E-1,-5.369933167E0,2.808160400E-1,5.441113871E0
6.660183583E0,1.212628326E0,-3.060236206E0,-2.724334717E-2,3.291846791E0
6.670156583E0,2.238295441E0,-2.329306183E0,-4.704716492E-1,3.264502618E0
6.680128583E0,1.998643799E0,-2.114502869E0,-7.255412292E-1,2.998684627E0
6.690101583E0,1.808090057E0,-1.864522705E0,-5.641767883E-1,2.657805490E0
6.700073583E0,1.807940369E0,-2.014660492E0,9.071136475E-2,2.708455986E0
6.710046583E0,1.679208069E0,-2.142195282E0,4.513114929E-1,2.759061875E0
6.720018583E0,1.545685730E0,-1.956730957E0,4.537065125E-1,2.534519681E0
6.729991583E0,1.418899384E0,-1.678609314E0,4.296066284E-1,2.239546058E0
6.739964583E0,1.529070282E0,-1.590143280E0,1.070274353E-1,2.208634522E0
6.749936583E0,1.665137329E0,-1.653461609E0,-5.667214966E-1,2.414081786E0
6.759909583E0,1.696721649E0,-2.008223877E0,-1.195114746E0,2.887927761E0
6.769881583E0,1.714833984E0,-2.364782410E0,-1.870809631E0,3.468829791E0
6.779854583E0,1.775757294E0,-2.642604675E0,-2.543810120E0,4.075247644E0
6.789826583E0,1.658401337E0,-2.975811768E0,-3.475622406E0,4.866795843E0
6.799799583E0,1.382525024E0,-3.650458832E0,-4.950954437E0,6.304694677E0
6.809771583E0,1.557660828E0,-4.502337341E0,-6.523135071E0,8.077663025E0
6.819744583E0,2.157762909E0,-5.485792236E0,-8.040230255E0,9.969712122E0
6.829716583E0,2.512974243E0,-7.048542480E0,-9.263636169E0,1.190848209E1
6.839689583E0,2.861299896E0,-8.927135925E0,-1.008138565E1,1.376644942E1
6.849661583E0,3.617227936E0,-1.060604462E1,-9.897717590E0,1.495116497E1
6.859634583E0,2.976260834E0,-1.230022156E1,-9.874665527E0,1.605187211E1
6.869606583E0,1.935325470E0,-1.376432693E1,-9.862840118E0,1.704340916E1
6.879579583E0,1.156944122E0,-1.431952240E1,-8.884624329E0,1.689153015E1
6.889552583E0,8.217910767E-1,-1.405442368E1,-7.415429535E0,1.591196910E1
6.899524583E0,1.022823029E0,-1.286814056E1,-6.512357483E0,1.445842344E1
6.909497583E0,1.846709747E0,-1.098715210E1,-6.896159363E0,1.310285702E1
6.919469583E0,3.141666870E0,-1.003019211E1,-8.232879639E0,1.335122210E1
6.929442583E0,5.310357056E0,-1.162302979E1,-1.095960938E1,1.683471862E1
6.939414583E0,6.999594269E0,-1.559262497E1,-1.238105347E1,2.110485154E1
6.949387583E0,6.698270874E0,-2.025063858E1,-7.918533325E0,2.275210684E1
6.959359583E0,6.578968964E0,-2.191936844E1,-4.196972351E0,2.326706089E1
6.969332583E0,5.219496002E0,-1.851694382E1,-4.511767731E0,1.976047557E1
6.979304583E0,2.406994629E0,-1.086755081E1,-1.330583038E0,1.121016213E1
6.989277583E0,1.384171600E0,-2.827021179E0,4.753515015E0,5.701217831E0
6.999249583E0,3.128943329E0,2.287093964E0,4.311484222E0,5.797411608E0
7.009222583E0,6.575077057E0,3.903283081E0,2.123783569E0,7.935849908E0
7.019194583E0,7.061415710E0,2.133663025E0,1.179846497E0,7.470485091E0
7.029167583E0,5.160967712E0,-1.209484863E0,-7.433541870E-1,5.352664459E0
7.039139583E0,2.301763458E0,-6.418502655E0,-1.486408997E0,6.978875486E0
7.049112583E0,-6.087840271E-1,-1.237282059E1,3.754193115E-1,1.239347598E1
7.059085583E0,-1.429676971E0,-1.610336288E1,2.918331299E0,1.642799227E1
7.069057583E0,-2.767744446E-1,-1.637025787E1,4.947212219E0,1.710370883E1
7.079030583E0,-1.222956848E-1,-1.676558578E1,4.783003693E0,1.743493468E1
7.089002583E0,-1.830543365E0,-1.810125824E1,1.453327789E0,1.825153694E1
7.098975583E0,-3.679199066E0,-1.843895599E1,-2.429447937E0,1.895873997E1
7.108947583E0,-2.342778168E0,-1.522768387E1,-2.592908020E0,1.562351233E1
7.118920583E0,7.177574158E-1,-1.070603668E1,-1.502276001E0,1.083472336E1
7.128892583E0,1.775457916E0,-8.234077148E0,-4.432283020E-1,8.434970577E0
7.138865583E0,2.043700104E0,-7.810607758E0,-6.113287354E-1,8.096667616E0
7.148837583E0,2.536774750E0,-8.264463959E0,-8.411009216E-1,8.685852947E0
7.158810583E0,3.798351288E0,-8.244106293E0,-1.202150116E0,9.156305258E0
7.168782583E0,4.715793457E0,-8.013286285E0,-1.301244049E0,9.388540946E0
7.178755583E0,5.181475067E0,-7.904013519E0,-5.764512634E-1,9.468548444E0
7.188727583E0,5.086273041E0,-7.818541260E0,1.106199646E-1,9.328022173E0
7.198700708E0,4.326752472E0,-7.846832428E0,-6.885681152E-3,8.960670372E0
7.208673708E0,2.625390472E0,-8.328530731E0,-4.143383789E-1,8.742355264E0
7.218645708E0,7.445516968E-1,-9.175619202E0,-1.956431580E-1,9.207856494E0
7.228618708E0,-7.592211914E-1,-9.868079224E0,3.893403625E-1,9.904897289E0
7.238590708E0,-8.825646973E-1,-9.822573853E0,7.289840698E-1,9.889049262E0
7.248563708E0,-1.300944672E0,-9.455387421E0,7.873626709E-1,9.576886148E0
7.258535708E0,-1.274000702E0,-9.308243408E0,-3.900888062E-1,9.403118760E0
7.268508708E0,-1.304537201E0,-9.296567688E0,-1.086889801E0,9.450360709E0
7.278480708E0,-8.810678101E-1,-9.253008270E0,-1.045426025E0,9.353467705E0
7.288453708E0,-1.463955688E-1,-8.971743164E0,-9.048683167E-1,9.018447413E0
7.298425708E0,5.291496277E-1,-8.605454865E0,-1.069376221E0,8.687774068E0
7.308398708E0,1.094074860E0,-8.270601196E0,-1.352587280E0,8.451587797E0
7.318370708E0,1.748513947E0,-8.122858429E0,-1.558109894E0,8.453746892E0
7.328343708E0,2.214944000E0,-8.097710724E0,-1.384321289E0,8.508539318E0
7.338315708E0,2.286345520E0,-8.274193726E0,-1.127305756E0,8.657971813E0
7.348288708E0,2.223625946E0,-8.778944092E0,-1.023122406E0,9.113789068E0
7.358260708E0,2.072440338E0,-9.031618652E0,-1.138682098E0,9.336045274E0
7.368233708E0,1.714684296E0,-9.296417999E0,-8.155041504E-1,9.488338994E0
7.378205708E0,1.236877899E0,-9.694290619E0,-6.038442993E-1,9.791514974E0
7.388178708E0,6.518943787E-1,-1.001297791E1,-5.542973328E-1,1.004947453E1
7.398151708E0,-1.002914429E-2,-1.015443375E1,-4.385879517E-1,1.016390598E1
7.408123708E0,-7.000941467E-1,-1.027598099E1,-3.570075989E-1,1.030598717E1
7.418096708E0,-1.186582489E0,-1.047237259E1,-5.529501343E-1,1.055387699E1
7.428068708E0,-1.357077942E0,-1.053763687E1,-7.816744995E-1,1.065337817E1
7.438041708E0,-8.861572266E-1,-1.014111145E1,-8.928932190E-1,1.021883919E1
7.448013708E0,-3.917353821E-1,-9.638307037E0,-1.275198212E0,9.730187544E0
7.457986708E0,-3.106040955E-1,-9.507329407E0,-1.829495544E0,9.686735327E0
7.467958708E0,-7.500901794E-1,-1.015787659E1,-1.970502319E0,1.037439017E1
7.477931708E0,-1.219364319E0,-1.129745682E1,-7.734416199E-1,1.138936310E1
7.487903708E0,-1.581012268E0,-1.170640640E1,4.710704041E-1,1.182207503E1
7.497876708E0,-1.458267517E0,-1.106603806E1,-5.101391602E-1,1.117336048E1
7.507848708E0,-5.716612244E-1,-1.027493317E1,-3.446283417E0,1.085255350E1
7.517821708E0,4.875361633E-1,-1.044363235E1,-5.460494843E0,1.179509017E1
7.527793708E0,1.300495605E0,-1.130733627E1,-4.565505981E0,1.226340031E1
7.537766708E0,1.758692780E0,-1.234572693E1,-2.604434052E0,1.273942897E1
7.547738708E0,2.323618011E0,-1.254286697E1,-1.457968140E0,1.283932957E1
7.557711708E0,2.865940247E0,-1.186328018E1,-1.510658569E0,1.229768757E1
7.567684708E0,3.014880524E0,-1.114043335E1,-2.320175171E0,1.177208446E1
7.577656708E0,3.324885864E0,-1.097951797E1,-2.177372131E0,1.167671317E1
7.587629708E0,4.775070190E0,-1.126422592E1,-1.552571411E0,1.233266228E1
7.597601708E0,5.331163788E0,-1.324370956E1,-1.684147797E0,1.437544796E1
7.607574708E0,5.078189850E0,-1.533710632E1,-2.343227234E0,1.632499790E1
7.617546708E0,4.846920776E0,-1.637549698E1,-1.465302887E0,1.714049751E1
7.627519708E0,5.042713623E0,-1.721629852E1,-2.559677124E-1,1.794144406E1
7.637491708E0,4.943769379E0,-1.768736893E1,8.211923218E-1,1.838364034E1
7.647464708E0,5.094505920E0,-1.749651581E1,1.713337097E0,1.830348546E1
7.657436708E0,5.758525085E0,-1.674537781E1,1.649719391E0,1.778454000E1
7.667409708E0,5.181325378E0,-1.510613663E1,2.022294617E-1,1.597129905E1
7.677381708E0,3.436403961E0,-1.278027328E1,-8.753796387E-1,1.326312734E1
7.687354708E0,2.066303101E0,-1.098355957E1,-1.227447510E0,1.124343438E1
7.697326708E0,1.470691681E0,-1.002061203E1,-1.542841644E0,1.024480160E1
7.707299708E0,1.815724182E-1,-1.049497559E1,1.474433899E-1,1.049758166E1
7.717271708E0,-5.845344543E-1,-1.163380737E1,3.860472107E-1,1.165487825E1
7.727244708E0,-6.403683472E-1,-1.164084274E1,-2.143542480E0,1.185386290E1
7.737216708E0,2.772235107E-1,-1.100706070E1,-3.094215546E0,1.143706291E1
7.747189708E0,1.229992218E0,-9.386231232E0,-1.516047363E0,9.587106821E0
7.757161708E0,1.399140472E0,-7.989186401E0,2.020797729E-1,8.113293391E0
7.767134708E0,2.170785828E0,-6.336473236E0,5.984555054E-1,6.724682385E0
7.777107708E0,3.790268097E0,-4.822521515E0,8.833131409E-1,6.197022520E0
7.787079708E0,4.800966339E0,-3.295247498E0,2.769241333E-1,5.829632993E0
7.797052708E0,4.690196686E0,-2.500101013E0,-6.352789307E-1,5.352759041E0
7.807024708E0,3.114124146E0,-2.008672943E0,-9.430389404E-1,3.823853897E0
7.816997708E0,1.277593231E0,-2.544857941E0,7.035369873E-3,2.847559639E0
7.826969708E0,5.228627014E-1,-3.388952637E0,1.001417542E-1,3.430512170E0
7.836942708E0,6.137237549E-2,-3.812272339E0,4.266128540E-2,3.813004975E0
7.846914708E0,-1.916015625E-1,-3.974085846E0,-2.399510193E-1,3.985931003E0
7.856887708E0,-4.581971741E-1,-3.824247437E0,-6.927593994E-1,3.913403722E0
7.866859708E0,-3.529660034E-1,-3.475023651E0,-1.103205872E0,3.662982060E0
7.876832708E0,1.116677856E-1,-3.157533875E0,-1.501677246E0,3.498217320E0
7.886804708E0,4.146377563E-1,-2.979553986E0,-1.690135345E0,3.450539655E0
7.896777708E0,3.490740967E-1,-2.762355652E0,-1.789828033E0,3.309976716E0
7.906749708E0,2.927911377E-1,-2.627785492E0,-2.026934967E0,3.331583498E0
7.916722708E0,4.046086121E-1,-2.905158691E0,-2.701731720E0,3.987857750E0
7.926694708E0,5.394781494E-1,-3.531755676E0,-3.883524170E0,5.276939910E0
7.936667708E0,8.336164856E-1,-4.914280701E0,-5.266947327E0,7.251607090E0
7.946639708E0,6.688092041E-1,-6.574178925E0,-6.492897949E0,9.264170662E0
7.956612708E0,3.297642517E-1,-7.774233398E0,-7.581733704E0,1.086416749E1
7.966584708E0,8.081694031E-1,-9.127120056E0,-9.157955933E0,1.295475261E1
7.976557708E0,4.532574463E-1,-1.050590286E1,-1.190908493E1,1.588728237E1
7.986530708E0,2.095642090E-2,-1.253882538E1,-1.340507401E1,1.835534228E1
7.996502708E0,-7.146139526E-1,-1.418315598E1,-1.290152115E1,1.918650136E1
8.006475708E0,-5.322930908E-1,-1.413675247E1,-1.202165085E1,1.856478375E1
8.016447708E0,-4.086502075E-2,-1.214529373E1,-1.100361786E1,1.638869842E1
8.026420708E0,8.922944641E-1,-1.004366409E1,-9.307944031E0,1.372257993E1
8.036392708E0,2.357597351E0,-8.306676178E0,-7.401358795E0,1.137274138E1
8.046365708E0,3.484753418E0,-6.693780212E0,-5.876779175E0,9.564869753E0
8.056337708E0,4.107907562E0,-5.863456879E0,-4.974006500E0,8.717555378E0
8.066310708E0,5.036576385E0,-6.805447998E0,-5.249134369E0,9.961658284E0
8.076282708E0,6.788233795E0,-9.307644653E0,-5.350773010E0,1.270209191E1
8.086255708E0,8.206384735E0,-1.224798019E1,-3.926784210E0,1.525704439E1
8.096227708E0,9.782008209E0,-1.485660553E1,-2.310595093E0,1.793725905E1
8.106200708E0,1.199201248E1,-1.677786026E1,-1.478774872E0,2.067587322E1
8.116172708E0,1.243898300E1,-1.737122635E1,-1.177002411E0,2.139797041E1
8.126145708E0,7.931855621E0,-1.524893967E1,-1.111588440E0,1.722440488E1
8.136117708E0,1.788929901E0,-1.355251740E1,-4.051325226E0,1.425777802E1
8.146090708E0,-2.113904114E0,-1.239347763E1,-2.970273285E0,1.291856810E1
8.156062708E0,-1.109193420E-1,-8.100255432E0,2.964884491E0,8.626527761E0
8.166035708E0,1.745370483E0,-3.742667084E0,5.664819946E0,7.010282451E0
8.176007708E0,2.043849792E0,-2.898572388E0,3.477568359E0,4.967144608E0
8.185980708E0,1.656156006E0,-4.621190186E0,6.788383484E-1,4.955711145E0
8.195952833E0,1.083896027E0,-6.740034027E0,-1.233435059E-1,6.827745082E0
8.205925833E0,6.432124329E-1,-8.872948608E0,8.836125183E-1,8.940006170E0
8.215898833E0,5.059478760E-1,-1.072369995E1,1.017434235E0,1.078373295E1
8.225870833E0,6.968009949E-1,-1.174023605E1,1.230890350E0,1.182513278E1
8.235843833E0,9.246272278E-1,-1.241413467E1,2.018851776E0,1.261116322E1
8.245815833E0,7.220983887E-1,-1.362960709E1,1.837279358E0,1.377182671E1
8.255788833E0,1.721420288E-1,-1.484747452E1,7.749385071E-1,1.486868058E1
8.265760833E0,3.802093506E-2,-1.403346725E1,-7.758366394E-1,1.405494828E1
8.275733833E0,1.130149841E0,-1.106858276E1,-1.226998444E0,1.119358246E1
8.285705833E0,1.827699280E0,-9.283544769E0,-4.366419983E-1,9.471818430E0
8.295678833E0,1.987716522E0,-8.970395966E0,2.743794250E-1,9.192078373E0
8.305650833E0,2.439327393E0,-9.081464996E0,4.481680298E-1,9.414041597E0
8.315623833E0,2.569107513E0,-8.810079346E0,-2.315684509E-1,9.179947464E0
8.325595833E0,2.700384521E0,-8.440198517E0,-1.311722260E0,8.958216500E0
8.335568833E0,2.825524292E0,-8.389753418E0,-1.047821045E-2,8.852776950E0
8.345540833E0,2.663860474E0,-8.446784821E0,1.212179260E0,8.939446570E0
8.355513833E0,1.956132202E0,-8.848100281E0,1.425335999E0,9.173162730E0
8.365485833E0,1.537452850E0,-9.557175751E0,9.996212769E-1,9.731526720E0
8.375458833E0,1.128203888E0,-9.695637817E0,5.821394348E-1,9.778400842E0
8.385430833E0,3.603007507E-1,-9.720336456E0,6.423143005E-1,9.748195993E0
8.395403833E0,-4.173321533E-1,-9.963880005E0,8.229885864E-1,1.000651693E1
8.405375833E0,-6.477030945E-1,-1.004141876E1,8.199948120E-1,1.009564270E1
8.415348833E0,-7.996371460E-1,-9.686955872E0,5.095404053E-1,9.733250487E0
8.425321833E0,-1.152453461E0,-9.344917145E0,-1.179547119E-1,9.416450432E0
8.435293833E0,-9.610015869E-1,-8.976084137E0,-1.052611084E0,9.088542269E0
8.445266833E0,-5.301974487E-1,-8.654253387E0,-2.034718781E0,8.906025575E0
8.455238833E0,3.562591553E-2,-8.608897705E0,-2.619851990E0,8.998778437E0
8.465211833E0,3.839515686E-1,-8.569529572E0,-2.415377197E0,8.911694726E0
8.475183833E0,5.599855042E-1,-8.818611603E0,-2.010169830E0,9.062134247E0
8.485156833E0,6.948550415E-1,-9.043144684E0,-1.105002136E0,9.136865930E0
8.495128833E0,8.909472656E-1,-8.787925415E0,-4.909790039E-2,8.833109913E0
8.505101833E0,1.253792725E0,-8.384514313E0,2.814147949E-2,8.477786763E0
8.515073833E0,1.781295776E0,-8.279582520E0,-7.890092468E-1,8.505706140E0
8.525046833E0,2.172432404E0,-8.479416962E0,-1.418450317E0,8.867467274E0
8.535018833E0,2.154619446E0,-8.791218567E0,-1.500030670E0,9.174856994E0
8.544991833E0,1.679357758E0,-8.961264954E0,-1.283580780E0,9.207176096E0
8.554963833E0,6.274951172E-1,-9.140442352E0,-7.023394775E-1,9.188836556E0
8.564936833E0,-4.665797424E-1,-9.601333923E0,3.275189209E-1,9.618241960E0
8.574908833E0,-1.174008636E0,-1.002151016E1,1.125359802E0,1.015260542E1
8.584881833E0,-1.300196228E0,-1.012195129E1,9.181906128E-1,1.024633994E1
8.594853833E0,-1.413660278E0,-1.008467880E1,-5.773493958E-1,1.019963305E1
8.604826833E0,-1.641037445E0,-9.986632690E0,-1.737137604E0,1.026856774E1
8.614798833E0,-1.746118927E0,-1.001088226E1,-1.780098267E0,1.031675554E1
8.624771833E0,-1.200952606E0,-1.041968216E1,-1.262175293E0,1.056433386E1
8.634743833E0,-3.761677551E-1,-1.094793365E1,-1.597777405E0,1.107030470E1
8.644716833E0,2.757266235E-1,-1.100122284E1,-2.661615143E0,1.132197528E1
8.654688833E0,7.014413452E-1,-1.103235809E1,-3.910767517E0,1.172599879E1
8.664661833E0,1.007105713E0,-1.126003464E1,-4.379293213E0,1.212356594E1
8.674633833E0,1.149309998E0,-1.141122025E1,-3.757935333E0,1.206892451E1
8.684606833E0,1.131197662E0,-1.139969421E1,-3.151995392E0,1.188140191E1
8.694579833E0,1.412612457E0,-1.132110764E1,-2.638862457E0,1.171010449E1
8.704551833E0,1.599274292E0,-1.160162430E1,-1.452130280E0,1.180101890E1
8.714524833E0,1.455872498E0,-1.174233170E1,-1.009800110E0,1.187525219E1
8.724496833E0,1.602866821E0,-1.139475449E1,-1.785187683E0,1.164459132E1
8.734469833E0,1.934726715E0,-1.081650696E1,-2.068398743E0,1.118115663E1
8.744441833E0,2.607427826E0,-1.097562607E1,-1.416204987E0,1.136963869E1
8.754414833E0,3.855831757E0,-1.272803192E1,-1.008003845E0,1.333740255E1
8.764386833E0,3.633394318E0,-1.535072800E1,-7.065307617E-1,1.579068048E1
8.774359833E0,3.694317627E0,-1.697245560E1,-1.811233521E-2,1.736987507E1
8.784331833E0,5.293891296E0,-1.799512894E1,1.383123779E-1,1.875817371E1
8.794304833E0,5.960754547E0,-1.867741013E1,7.887098694E-1,1.962137373E1
8.804276833E0,5.417234802E0,-1.813957855E1,1.128952332E0,1.896484317E1
8.814249833E0,5.371579742E0,-1.705223969E1,2.501298523E-1,1.788002551E1
8.824221833E0,5.457650757E0,-1.491827728E1,-5.324427795E-1,1.589416384E1
8.834194833E0,5.214256897E0,-1.282712585E1,-1.071920929E0,1.388785970E1
8.844166833E0,4.596491547E0,-1.133697464E1,-1.562151489E0,1.233268202E1
8.854139833E0,4.506378937E0,-1.056996964E1,-1.259181519E0,1.155929268E1
8.864111833E0,5.148992615E0,-9.833052063E0,-8.590635681E-1,1.113279067E1
8.874084833E0,5.003195801E0,-9.472152557E0,-7.520361328E-1,1.073867779E1
8.884056833E0,3.308270416E0,-9.554331665E0,1.820214844E-1,1.011251890E1
8.894029833E0,2.381248169E0,-9.325158234E0,4.176315308E-1,9.633448760E0
8.904001833E0,1.473835144E0,-9.207802277E0,2.724334717E-2,9.325049866E0
8.913974833E0,1.088985443E0,-9.368567963E0,-1.077010345E0,9.492939811E0
8.923946833E0,4.337979126E-1,-9.387877808E0,-1.527274017E0,9.521186706E0
8.933919833E0,-3.381468201E-1,-9.183253326E0,-1.425635376E0,9.299404344E0
8.943891833E0,-1.175505524E0,-8.673862610E0,-9.539662170E-1,8.804984801E0
8.953864833E0,-1.367406464E0,-7.847131805E0,-4.698728943E-1,7.979226688E0
8.963836833E0,-7.728428650E-1,-6.326444092E0,-4.481680298E-1,6.389212434E0
8.973809833E0,-1.645079041E-1,-4.642146606E0,-9.340576172E-1,4.738043014E0
8.983781833E0,4.176315308E-2,-3.430117035E0,-9.735754395E-1,3.565851395E0
8.993754833E0,3.787124634E-1,-2.660866699E0,-2.731819153E-1,2.701529767E0
9.003727833E0,3.703298950E-1,-1.957180023E0,3.891906738E-3,1.991911901E0
9.013699833E0,4.011657715E-1,-1.608704681E0,-1.350192261E-1,1.663458722E0
9.023672833E0,5.352868652E-1,-1.802701263E0,-3.135978699E-1,1.906464659E0
9.033644833E0,4.736151123E-1,-1.798509979E0,-5.592370605E-1,1.942085351E0
9.043617833E0,7.494914246E-1,-1.961221619E0,-8.786727905E-1,2.276003846E0
9.053589833E0,1.112187195E0,-2.273023224E0,-1.395248566E0,2.889690899E0
9.063562833E0,9.839039612E-1,-2.291584625E0,-1.954335938E0,3.168415386E0
9.073534833E0,1.031055908E0,-2.213896179E0,-2.556982727E0,3.535897799E0
9.083507833E0,1.084494781E0,-2.690355377E0,-3.199746094E0,4.318855873E0
9.093479833E0,9.900411987E-1,-3.658841400E0,-4.275708618E0,5.713929134E0
9.103452833E0,1.011296997E0,-4.936284943E0,-5.715265045E0,7.619310020E0
9.113424833E0,4.980143738E-1,-6.246061249E0,-7.355254669E0,9.662353269E0
9.123397833E0,6.331832886E-1,-8.165070648E0,-9.174571381E0,1.229805106E1
9.133369833E0,1.019829254E0,-1.064211960E1,-1.193198730E1,1.602083276E1
9.143342833E0,8.632548523E-1,-1.218556000E1,-1.499821106E1,1.934371775E1
9.153314833E0,1.679357758E0,-1.392584106E1,-1.438628357E1,2.009264658E1
9.163287833E0,2.659369812E0,-1.444720688E1,-1.206610840E1,1.901012904E1
9.173259833E0,3.213367767E0,-1.270737488E1,-9.940977631E0,1.645071868E1
9.183232833E0,3.571722565E0,-1.003094055E1,-7.804320831E0,1.320168149E1
9.193204833E0,3.503614197E0,-8.302484894E0,-6.207142181E0,1.094235724E1
9.203177958E0,2.777474213E0,-7.244934082E0,-5.376070404E0,9.439574452E0
9.213149958E0,1.899998932E0,-6.529421997E0,-5.216801605E0,8.570785643E0
9.223122958E0,1.903741150E0,-6.843917999E0,-5.959107971E0,9.272238767E0
9.233094958E0,3.356021118E0,-9.768985291E0,-7.157515869E0,1.256686058E1
9.243067958E0,5.507347412E0,-1.379905472E1,-6.193670197E0,1.609678033E1
9.253039958E0,7.269782410E0,-1.660122757E1,-3.687731323E0,1.849458990E1
9.263012958E0,9.021888885E0,-1.707708801E1,-3.118465118E0,1.956390142E1
9.272984958E0,8.011939087E0,-1.518547165E1,-2.974763947E0,1.742523853E1
9.282957958E0,4.702022095E0,-1.081650696E1,-2.046244812E0,1.197050343E1
9.292929958E0,2.396815796E0,-7.240892487E0,-1.661844177E0,7.806213937E0
9.302902958E0,1.888921967E0,-4.631818085E0,1.611698456E0,5.255410248E0
9.312874958E0,3.329526215E0,-2.782413940E0,3.467838593E0,5.554590593E0
9.322847958E0,4.057013397E0,-3.078198853E0,1.031055908E0,5.195935158E0
9.332820958E0,3.587888947E0,-4.899760895E0,-3.344046021E-1,6.082140278E0
9.342792958E0,2.491718445E0,-8.149652710E0,-1.348695374E-1,8.523126767E0
9.352765958E0,1.109642487E0,-1.195518906E1,8.234376526E-1,1.203477883E1
9.362737958E0,4.002676392E-1,-1.425770096E1,1.238823853E0,1.431701559E1
9.372710958E0,9.641450500E-1,-1.377046417E1,2.448907471E0,1.401971494E1
9.382682958E0,9.963281250E-1,-1.309222458E1,3.373684387E0,1.355657628E1
9.392655958E0,1.131646729E-1,-1.355880432E1,1.984423370E0,1.370371909E1
9.402627958E0,-1.027912445E0,-1.382764526E1,-1.295106812E0,1.392615091E1
9.412600958E0,-9.334588623E-1,-1.283416122E1,-2.891537018E0,1.318893575E1
9.422572958E0,7.861651611E-1,-1.135598511E1,-2.286046143E0,1.161044618E1
9.432545958E0,2.260149994E0,-9.904303894E0,-1.457818451E0,1.026297950E1
9.442517958E0,2.945724335E0,-8.851842499E0,-1.085692291E0,9.392078323E0
9.452490958E0,3.063828735E0,-8.517437897E0,-1.646875305E0,9.200325707E0
9.462462958E0,2.932402039E0,-8.511450348E0,-1.535806274E0,9.132495259E0
9.472435958E0,2.503843231E0,-8.767418060E0,-4.575984192E-1,9.129416558E0
9.482407958E0,1.889820099E0,-9.151968384E0,2.745291138E-1,9.349080786E0
9.492380958E0,1.080303497E0,-9.488019562E0,2.487826538E-1,9.552563198E0
9.502352958E0,1.712438965E-1,-9.446106720E0,2.532733154E-1,9.451053064E0
9.512325958E0,-3.218307495E-1,-9.153165894E0,6.051914978E-1,9.178795000E0
9.522297958E0,-4.490661621E-1,-9.014254761E0,9.172924805E-1,9.071927844E0
9.532270958E0,-5.785469055E-1,-9.129814453E0,1.099014587E0,9.213905878E0
9.542242958E0,-8.402027893E-1,-9.397008820E0,7.855664063E-1,9.467144768E0
9.552215958E0,-9.491761780E-1,-9.390123138E0,1.520837402E-1,9.439198983E0
9.562187958E0,-1.006956024E0,-9.322763214E0,-6.430627441E-1,9.399010803E0
9.572160958E0,-7.512876892E-1,-9.396260376E0,-1.400637360E0,9.529739097E0
9.582132958E0,-1.869612122E-1,-9.321715393E0,-2.028132477E0,9.541627414E0
9.592105958E0,7.908055115E-1,-8.745413818E0,-2.817590790E0,9.222063439E0
9.602077958E0,1.425934753E0,-8.414601746E0,-3.155737610E0,9.099312739E0
9.612050958E0,1.570983124E0,-8.604856110E0,-2.825973358E0,9.192260988E0
9.622022958E0,1.438957672E0,-8.859925690E0,-2.021845551E0,9.200909838E0
9.631995958E0,1.082249451E0,-9.202712860E0,-1.264121246E0,9.351961847E0
9.641967958E0,6.628216553E-1,-9.345665588E0,-3.317102051E-1,9.375010906E0
9.651940958E0,5.414241028E-1,-9.145382080E0,6.981481934E-1,9.187957572E0
9.661912958E0,5.785469055E-1,-8.790170746E0,1.109193420E0,8.878745875E0
9.671885958E0,6.650669861E-1,-8.476722565E0,9.292675781E-1,8.553401532E0
9.681857958E0,6.331832886E-1,-8.393046570E0,3.724255371E-1,8.425132200E0
9.691830958E0,4.358935547E-1,-8.933871918E0,-5.923182678E-1,8.964090114E0
9.701803958E0,2.396516418E-1,-9.604028320E0,-1.639839935E0,9.745966750E0
9.711775958E0,1.496887207E-1,-1.009036697E1,-2.270927582E0,1.034383993E1
9.721748958E0,1.752854919E-1,-1.018407211E1,-2.154320068E0,1.041091469E1
9.731720958E0,3.362008667E-1,-1.015084122E1,-1.603465576E0,1.028220357E1
9.741693958E0,3.227288818E-1,-1.016027161E1,-1.086141357E0,1.022325663E1
9.751665958E0,1.116677856E-1,-1.036010605E1,-8.689430237E-1,1.039708272E1
9.761638958E0,-8.442443848E-2,-1.048808990E1,-5.942642212E-1,1.050525142E1
9.771610958E0,-2.098635864E-1,-1.047536636E1,-1.121168518E-1,1.047806821E1
9.781583958E0,-4.477189636E-1,-1.019664597E1,-1.573228455E-1,1.020768297E1
9.791555958E0,-4.629872131E-1,-1.004695724E1,-1.184486847E0,1.012712773E1
9.801528958E0,1.231938171E-1,-1.023406815E1,-2.764900360E0,1.060169805E1
9.811500958E0,6.795867920E-1,-1.071995773E1,-3.954925690E0,1.144643041E1
9.821473958E0,7.842192078E-1,-1.114507370E1,-4.162094879E0,1.192269690E1
9.831445958E0,5.897735596E-1,-1.158949951E1,-3.240012360E0,1.204831988E1
9.841418958E0,2.833607483E-1,-1.192674820E1,-1.737736359E0,1.205600861E1
9.851390958E0,3.858975220E-1,-1.200713104E1,-9.506730652E-1,1.205088760E1
9.861363958E0,6.706054688E-1,-1.210412933E1,-5.385800171E-1,1.213464985E1
9.871335958E0,6.503974915E-1,-1.234213440E1,-9.125024414E-1,1.239289955E1
9.881308958E0,3.842509460E-1,-1.281574951E1,-1.587149506E0,1.291937026E1
9.891280958E0,1.189576263E0,-1.280227753E1,-2.147733765E0,1.303557294E1
9.901253958E0,2.626587982E0,-1.199156342E1,-1.500180359E0,1.236717828E1
9.911225958E0,4.596641235E0,-1.244062958E1,-1.978585510E0,1.340944352E1
9.921198958E0,5.705535278E0,-1.414842819E1,-2.610271912E0,1.547723078E1
9.931170958E0,6.153703308E0,-1.518008286E1,-2.402503967E0,1.655521082E1
9.941143958E0,5.777236176E0,-1.573258392E1,-1.061742096E0,1.679339010E1
9.951115958E0,5.459447021E0,-1.570743622E1,-4.487667847E-1,1.663521884E1
9.961088958E0,6.064189453E0,-1.527663208E1,-6.695576477E-1,1.644986896E1
9.971060958E0,6.019881592E0,-1.484148697E1,-1.112037506E0,1.605444914E1
9.981033958E0,6.335575104E0,-1.369247635E1,-1.977837067E0,1.521628272E1
9.991005958E0,5.066065063E0,-1.235006790E1,-1.703457642E0,1.345700414E1
1.000097896E1,4.109105072E0,-1.179292648E1,-7.405101013E-1,1.251024439E1
1.001095196E1,3.562890930E0,-1.163934586E1,7.399113464E-1,1.219491831E1
1.002092396E1,2.635419617E0,-1.205158859E1,2.225272522E0,1.253547215E1
1.003089596E1,1.598525848E0,-1.212254105E1,-1.290616150E0,1.229540468E1
1.004086896E1,-1.359173584E-1,-1.269614822E1,-1.409468994E0,1.277486814E1
1.005084196E1,-2.199526062E0,-1.380833542E1,-1.619631958E0,1.407591026E1
1.006081396E1,-1.892664185E0,-1.379680939E1,-1.999392242E0,1.406882000E1
1.007078696E1,-2.811154175E-1,-1.196881073E1,-1.178648987E0,1.202999042E1
1.008075896E1,2.859054565E-2,-1.015667908E1,7.090754700E-1,1.018144073E1
1.009073196E1,4.775070190E-2,-8.364905090E0,1.758692780E0,8.547918904E0
1.010070396E1,5.655239868E-1,-6.698420563E0,1.404678955E0,6.867443366E0
1.011067696E1,6.556365967E-1,-5.244643707E0,2.281256104E-1,5.290386400E0
1.012064896E1,6.848258972E-1,-3.196003876E0,-8.463400269E-1,3.376346950E0
1.013062196E1,1.156195679E0,-5.028044128E-1,-1.666035461E0,2.089324026E0
1.014059396E1,1.173559570E0,5.269042969E-2,-2.354753265E0,2.631516918E0
1.015056696E1,9.410929871E-1,-6.397695923E-1,-1.582958221E0,1.949542991E0
1.016053896E1,9.966275024E-1,-1.175655212E0,-1.015188904E0,1.845546008E0
1.017051196E1,1.451980591E0,-1.778302002E0,-5.616320801E-1,2.363479689E0
1.018048396E1,1.764380951E0,-2.177970886E0,-1.935475159E-1,2.809636625E0
1.019045696E1,1.851799164E0,-1.992805939E0,3.697311401E-2,2.720625418E0
1.020042867E1,1.909429321E0,-1.451980591E0,-2.421963501E-1,2.410980514E0
1.021040167E1,1.335073700E0,-1.365310822E0,-6.039939880E-1,2.002824047E0
1.022037367E1,6.837780762E-1,-1.364712067E0,-1.399290161E0,2.070749728E0
1.023034667E1,3.085084534E-1,-1.260229340E0,-2.481838989E0,2.800514278E0
1.024031867E1,3.143463135E-2,-1.436263275E0,-3.609144745E0,3.884554816E0
1.025029167E1,-5.583389282E-1,-2.362237701E0,-4.954247589E0,5.516926544E0
1.026026367E1,-7.592211914E-1,-4.145479431E0,-6.510261841E0,7.755315968E0
1.027023667E1,-1.134041748E0,-5.956862640E0,-8.323441315E0,1.029805508E1
1.028020867E1,1.751358032E-1,-8.503965912E0,-1.081486038E1,1.375897212E1
1.029018167E1,3.631448364E-1,-1.134430939E1,-1.469958206E1,1.857156274E1
1.030015367E1,1.960173798E0,-1.427162201E1,-1.488384888E1,2.071353262E1
1.031012667E1,3.872447205E0,-1.737646545E1,-1.246293320E1,2.173159228E1
1.032009867E1,3.536396027E0,-1.760953079E1,-1.145163620E1,2.130121225E1
1.033007167E1,2.615061951E0,-1.319595886E1,-1.083461929E1,1.727312521E1
1.034004367E1,2.761008453E0,-9.605824585E0,-9.264085236E0,1.362785049E1
1.035001667E1,2.426154785E0,-7.348818054E0,-7.666008453E0,1.089307300E1
1.035998867E1,1.927691345E0,-5.661975861E0,-7.324568481E0,9.456387683E0
1.036996167E1,3.104394379E0,-6.481970673E0,-6.482419739E0,9.678583260E0
1.037993367E1,4.560715942E0,-9.894125061E0,-1.895807648E0,1.105838719E1
1.038990667E1,6.980434113E0,-1.279164963E1,2.461331635E0,1.477873181E1
1.039987867E1,9.614207153E0,-1.352497467E1,1.435215454E0,1.665586270E1
1.040985167E1,1.013871643E1,-1.396595764E1,-6.572831726E-1,1.727059828E1
1.041982467E1,6.882537689E0,-1.475766129E1,-2.955903168E0,1.654978112E1
1.042979667E1,2.167492676E0,-1.450753143E1,-7.162006531E0,1.632362798E1
1.043976967E1,4.026626587E-1,-1.278296768E1,-1.354533234E0,1.286083824E1
1.044974167E1,1.734892273E0,-8.874146118E0,4.711751862E0,1.019612309E1
1.045971467E1,2.796035614E0,-5.798192596E0,3.240910492E0,7.206965614E0
1.046968667E1,2.997816010E0,-5.168152771E0,1.146914978E0,6.083758531E0
1.047965967E1,2.327809296E0,-6.390510864E0,6.776408386E-1,6.834948597E0
1.048963167E1,1.477577362E0,-8.446934509E0,1.623224487E0,8.727473586E0
1.049960467E1,1.239721985E0,-9.921368408E0,2.379002838E0,1.027765130E1
1.050957667E1,1.760189667E0,-1.016970200E1,2.400857391E0,1.059647218E1
1.051954967E1,1.699116669E0,-1.066996170E1,1.844614105E0,1.096073361E1
1.052952167E1,5.149291992E-1,-1.191192902E1,1.456471252E-1,1.192394306E1
1.053949467E1,-1.032103729E0,-1.323442886E1,-3.638483734E0,1.376422571E1
1.054946667E1,-5.909710693E-1,-1.349024689E1,-4.359833679E0,1.418957919E1
1.055943967E1,1.022823029E0,-1.256502090E1,-3.209176483E0,1.300864063E1
1.056941167E1,1.374741211E0,-1.131317413E1,-2.209405518E0,1.160858713E1
1.057938467E1,1.503024445E0,-9.851164398E0,-1.579216003E0,1.008952158E1
1.058935667E1,1.267713776E0,-8.714727631E0,-1.611399078E0,8.952663452E0
1.059932967E1,1.159189453E0,-8.328231354E0,-1.665736084E0,8.571921277E0
1.060930167E1,1.482367401E0,-8.566386108E0,-1.367556152E0,8.800601906E0
1.061927467E1,1.347647552E0,-9.053922272E0,-4.547543335E-1,9.164958480E0
1.062924667E1,3.311114502E-1,-9.114845581E0,2.674937439E-1,9.124779321E0
1.063921967E1,-8.816665649E-2,-8.946595459E0,3.336561584E-1,8.953249136E0
1.064919167E1,1.272354126E-1,-8.738528137E0,3.303630066E-1,8.745696231E0
1.065916467E1,3.954776001E-1,-8.643026733E0,2.691403198E-1,8.656254973E0
1.066913667E1,1.743873596E-1,-8.611741791E0,-6.840774536E-2,8.613778918E0
1.067910967E1,-2.577639771E-1,-8.943451996E0,-9.842033386E-1,9.001135044E0
1.068908167E1,-5.658233643E-1,-9.315877533E0,-1.760788422E0,9.497689517E0
1.069905467E1,-1.074765015E-1,-9.278006287E0,-2.093097382E0,9.511782614E0
1.070902667E1,3.507206726E-1,-9.060508575E0,-2.139500885E0,9.316291358E0
1.071899967E1,1.013841705E0,-8.623417511E0,-2.288740540E0,8.979395182E0
1.072897167E1,1.499880981E0,-8.177195435E0,-2.377356262E0,8.646848613E0
1.073894467E1,2.042502594E0,-8.011340332E0,-2.446811829E0,8.622080891E0
1.074891667E1,2.259102173E0,-8.101153564E0,-2.178270264E0,8.687755351E0
1.075888967E1,2.073488159E0,-8.300688629E0,-1.538051605E0,8.692892936E0
1.076886167E1,1.518143005E0,-8.526868286E0,-6.876699829E-1,8.688217939E0
1.077883467E1,9.795629883E-1,-8.979676666E0,-1.167572021E-1,9.033701839E0
1.078880667E1,4.917274475E-1,-9.624835052E0,-6.810836792E-2,9.637628568E0
1.079877967E1,-2.354603577E-1,-1.027463379E1,-1.422042847E-1,1.027831519E1
1.080875167E1,-9.488768005E-1,-1.055829391E1,-2.619552612E-1,1.060408214E1
1.081872467E1,-1.268162842E0,-1.050485504E1,-4.745132446E-1,1.059175997E1
1.082869767E1,-9.243278503E-1,-1.017643799E1,-1.185983734E0,1.028692517E1
1.083866967E1,-2.682421875E-1,-9.486971741E0,-2.545905762E0,9.826302602E0
1.084864267E1,3.781137085E-1,-8.935668182E0,-3.529660034E0,9.614969360E0
1.085861467E1,3.457809448E-1,-9.343719635E0,-2.914589081E0,9.793849631E0
1.086858767E1,-3.397933960E-1,-1.040261765E1,-1.522483978E0,1.051892917E1
1.087855967E1,-9.783654785E-1,-1.126093277E1,-1.914518738E-1,1.130497500E1
1.088853267E1,-1.509610748E0,-1.161225220E1,2.769241333E-1,1.171324091E1
1.089850467E1,-1.534159698E0,-1.143576920E1,-6.256988525E-2,1.153838715E1
1.090847767E1,-9.672885132E-1,-1.105271576E1,-1.610351257E0,1.121121777E1
1.091844967E1,-6.810836792E-2,-1.076516373E1,-3.299289093E0,1.125960467E1
1.092842267E1,7.652087402E-1,-1.075049423E1,-3.822600861E0,1.143551258E1
1.093839467E1,1.086440735E0,-1.104163879E1,-3.031645660E0,1.150169623E1
1.094836767E1,1.374890900E0,-1.160401932E1,-1.917811890E0,1.184151982E1
1.095833967E1,1.874402161E0,-1.193108917E1,-1.991458740E0,1.224051389E1
1.096831267E1,2.194736023E0,-1.221699463E1,-2.884950714E0,1.274342044E1
1.097828467E1,1.459015961E0,-1.244077927E1,-3.256777496E0,1.294250038E1
1.098825767E1,2.405497742E-1,-1.194560898E1,-3.591182098E0,1.247605815E1
1.099822967E1,9.107061768E-1,-1.115061218E1,-3.186872864E0,1.163278541E1
1.100820267E1,2.107168121E0,-1.281260605E1,-2.789898376E0,1.328106036E1
1.101817467E1,2.972219238E0,-1.533007095E1,-3.017425232E0,1.590440246E1
1.102814767E1,3.372037811E0,-1.596819397E1,-2.593207397E0,1.652508948E1
1.103811967E1,3.534450073E0,-1.581640961E1,-1.296304321E0,1.625827651E1
1.104809267E1,3.116369476E0,-1.570354431E1,1.224453735E-1,1.601024845E1
1.105806467E1,2.952909393E0,-1.597702560E1,1.373394012E0,1.630555832E1
1.106803767E1,3.179687805E0,-1.611878082E1,1.724114685E0,1.651962715E1
1.107800967E1,3.430266724E0,-1.539323959E1,1.003213806E0,1.580268942E1
1.108798267E1,3.063978424E0,-1.386761215E1,-1.286873932E0,1.426024807E1
1.109795467E1,1.696122894E0,-1.300495605E1,-1.204694824E0,1.317030768E1
1.110792767E1,2.435285797E0,-1.297247360E1,-4.724176025E-1,1.320753068E1
1.111789967E1,2.678230591E0,-1.252714966E1,-8.418493652E-1,1.283787786E1
1.112787267E1,1.262923737E0,-1.165356628E1,-7.776329041E-1,1.174756555E1
1.113784467E1,-6.673123169E-1,-1.124521545E1,-1.682201843E0,1.138990691E1
1.114781767E1,-9.639953613E-1,-1.156629776E1,-1.091979218E0,1.165765626E1
1.115778967E1,-3.686833191E-1,-1.201237015E1,-4.619393921E-1,1.202690118E1
1.116776267E1,3.164419556E-1,-1.188543411E1,-1.734892273E-1,1.189091157E1
1.117773467E1,5.577401733E-1,-1.091081085E1,-1.437011719E-2,1.092506632E1
1.118770767E1,7.065307617E-1,-1.015877472E1,1.507365417E-1,1.018442983E1
1.119768008E1,1.190474396E0,-8.237519989E0,9.086105347E-2,8.323594211E0
1.120765308E1,1.854194183E0,-6.104306030E0,3.258723450E-1,6.388018548E0
1.121762508E1,2.376757507E0,-4.712799683E0,7.423063660E-1,5.330147825E0
1.122759808E1,2.856360168E0,-2.727029114E0,2.017803955E-1,3.954263083E0
1.123757008E1,2.643652496E0,-1.540895691E0,-4.423301697E-1,3.091749348E0
1.124754308E1,1.700014801E0,-1.749561768E0,-3.362008667E-1,2.462528726E0
1.125751608E1,1.390308838E0,-2.279010773E0,-5.072950745E-1,2.717387911E0
1.126748808E1,1.105750580E0,-3.041525116E0,-2.444416809E-1,3.245506295E0
1.127746108E1,9.431886292E-1,-3.539240112E0,-1.586700439E-1,3.666197150E0
1.128743308E1,1.157991943E0,-3.623065796E0,-3.951782227E-1,3.824096878E0
1.129740608E1,1.476978607E0,-3.135978699E0,-9.524693298E-1,3.594861058E0
1.130737808E1,1.524729309E0,-2.590662689E0,-1.263372803E0,3.260742779E0
1.131735108E1,1.707349548E0,-2.558928680E0,-1.626367950E0,3.479688374E0
1.132732308E1,1.769470367E0,-2.841091919E0,-2.178719330E0,3.993700864E0
1.133729608E1,1.552272034E0,-3.437152405E0,-2.889141998E0,4.750863775E0
1.134726808E1,1.505718842E0,-4.132755890E0,-3.734284515E0,5.769899593E0
1.135724108E1,1.551523590E0,-4.654870148E0,-4.674479370E0,6.776857600E0
1.136721308E1,1.448687439E0,-4.857249298E0,-5.662125549E0,7.599423121E0
1.137718608E1,1.568588104E0,-5.098547516E0,-6.973099365E0,8.779508538E0
1.138715808E1,1.605261841E0,-6.095025330E0,-8.982969818E0,1.097360224E1
1.139713108E1,1.363664246E0,-8.046068115E0,-1.101903580E1,1.371196347E1
1.140710308E1,4.513114929E-1,-9.960437164E0,-1.276350815E1,1.619633078E1
1.141707608E1,5.471122742E-1,-1.208526855E1,-1.182495987E1,1.691693600E1
1.142704808E1,8.961863708E-1,-1.381821487E1,-9.908944244E0,1.702743047E1
1.143702108E1,6.911128235E-1,-1.362960709E1,-9.299860840E0,1.651457653E1
1.144699308E1,7.900570679E-1,-1.207479034E1,-9.090446320E0,1.513476020E1
1.145696608E1,1.681752777E0,-1.096604599E1,-8.908275146E0,1.422813491E1
1.146693808E1,3.180585938E0,-1.117111954E1,-9.937534790E0,1.528609291E1
1.147691108E1,5.055287476E0,-1.251637207E1,-1.227672043E1,1.824646173E1
1.148688308E1,6.501280518E0,-1.523127640E1,-1.051024384E1,1.961437367E1
1.149685608E1,5.487588501E0,-1.751208344E1,-2.120191040E0,1.847381671E1
1.150682808E1,6.510112152E0,-1.666110306E1,3.336561584E0,1.819633366E1
1.151680108E1,6.776857452E0,-1.055095917E1,3.855682068E0,1.311925381E1
1.152677308E1,6.995852051E0,-3.987408142E0,2.988385620E0,8.589052231E0
1.153674608E1,8.094417572E0,-4.550537109E-1,-1.267564087E0,8.205692440E0
1.154671808E1,7.061116333E0,-4.424798584E-1,-2.699636078E0,7.572528458E0
1.155669108E1,4.278552704E0,-1.954186249E0,7.705975342E-1,4.766411406E0
1.156666308E1,2.424807587E0,-4.481979675E0,3.263214111E-1,5.106301921E0
1.157663608E1,7.770341492E-1,-8.016579437E0,1.234931946E-1,8.055096431E0
1.158660808E1,-5.986051941E-1,-1.149803970E1,1.992057495E0,1.168467108E1
1.159658108E1,-1.288071442E0,-1.389859772E1,3.578308868E0,1.440952605E1
1.160655308E1,-8.945397949E-1,-1.450813019E1,2.413131866E0,1.473462753E1
1.161652608E1,-1.022972717E0,-1.464719101E1,-1.144669647E0,1.472742158E1
1.162649808E1,-1.601519623E0,-1.420216644E1,-3.999233551E0,1.484116794E1
1.163647108E1,-1.694326630E0,-1.310434937E1,-4.190236359E0,1.386191891E1
1.164644308E1,-1.070274353E0,-1.156854309E1,-3.164718933E0,1.204126747E1
1.165641608E1,6.122268677E-2,-1.007030869E1,-2.729573822E0,1.043386019E1
1.166638808E1,9.888436890E-1,-9.087153168E0,-2.458487549E0,9.465639205E0
1.167636108E1,1.769021301E0,-8.699160004E0,-1.794618073E0,9.056791659E0
1.168633308E1,2.172282715E0,-8.807684326E0,-1.169218597E0,9.146648977E0
1.169630608E1,2.222428436E0,-9.109905853E0,-1.213676147E0,9.455293893E0
1.170627808E1,1.772314453E0,-9.430838470E0,-1.775158539E0,9.758739704E0
1.171625108E1,9.657916260E-1,-9.754465485E0,-2.169438629E0,1.003936324E1
1.172622308E1,5.957611084E-2,-1.005728577E1,-1.796114960E0,1.021658335E1
1.173619608E1,-1.207987976E-1,-1.037702087E1,-1.351090393E0,1.046530457E1
1.174616808E1,2.323168945E-1,-1.006417145E1,-9.172924805E-1,1.010855794E1
1.175614108E1,5.222639465E-1,-9.297615509E0,-6.080355835E-1,9.332101642E0
1.176611308E1,6.661148071E-1,-8.486751709E0,-8.264314270E-1,8.552873927E0
1.177608608E1,6.950047302E-1,-8.262817383E0,-1.628463593E0,8.450389124E0
1.178605808E1,8.062234497E-1,-8.863368530E0,-2.342029724E0,9.202956111E0
1.179603108E1,6.605763245E-1,-9.470056915E0,-2.480791168E0,9.811863425E0
1.180600308E1,3.809577942E-1,-9.586963806E0,-2.612068176E0,9.943736924E0
1.181597608E1,-2.013313293E-1,-9.469757538E0,-2.293829956E0,9.745691253E0
1.182594908E1,3.038681030E-1,-8.842861176E0,-2.471660156E0,9.186818466E0
1.183592108E1,8.494834900E-1,-8.060138855E0,-2.589465179E0,8.508395294E0
1.184589408E1,1.259929962E0,-7.474706268E0,-2.093845825E0,7.864022358E0
1.185586608E1,1.716480560E0,-7.351662140E0,-1.397344208E0,7.677617636E0
1.186583908E1,2.079026642E0,-7.348368988E0,-3.376977539E-1,7.644273565E0
1.187581108E1,2.322719879E0,-7.460485840E0,6.004014587E-1,7.836731367E0
1.188578408E1,2.580483856E0,-7.738457794E0,8.951385498E-1,8.206332859E0
1.189575608E1,2.497556305E0,-8.315507812E0,6.810836792E-1,8.709152235E0
1.190572908E1,1.935624847E0,-9.009315033E0,2.842588806E-1,9.219284355E0
1.191570108E1,1.106798401E0,-9.737850037E0,-2.987786865E-1,9.805100445E0
1.192567408E1,2.218386841E-1,-1.025083328E1,-8.755293274E-1,1.029054649E1
1.193564608E1,-4.873864746E-1,-1.048015640E1,-1.259331207E0,1.056679416E1
1.194561908E1,-5.764512634E-1,-1.070169571E1,-1.793869629E0,1.086630367E1
1.195559108E1,-1.622625732E-1,-1.075767929E1,-2.155367889E0,1.097267532E1
1.196556408E1,4.808001709E-1,-1.035995636E1,-2.274819489E0,1.061765832E1
1.197553608E1,8.213420105E-1,-1.003917343E1,-2.362088013E0,1.034596857E1
1.198550908E1,3.020718384E-1,-1.031145721E1,-2.067650299E0,1.052105389E1
1.199548108E1,-5.513035583E-1,-1.076995377E1,-1.107995911E0,1.084082537E1
1.200545408E1,-1.343156891E0,-1.073851913E1,-1.945953369E-1,1.082394249E1
1.201542608E1,-1.815424805E0,-1.062819855E1,-6.271957397E-2,1.078231447E1
1.202539908E1,-1.851799164E0,-1.052102142E1,-8.183482361E-1,1.071404432E1
1.203537108E1,-1.266216888E0,-1.043240570E1,-1.886526947E0,1.067695546E1
1.204534408E1,-3.447331238E-1,-1.031879196E1,-2.482886810E0,1.061889991E1
1.205531608E1,3.468287659E-1,-1.002809647E1,-2.496059418E0,1.033988982E1
1.206528908E1,7.988887024E-1,-9.829309845E0,-2.921325073E0,1.028531455E1
1.207526108E1,9.119036865E-1,-1.043270508E1,-3.162473602E0,1.093956776E1
1.208523408E1,8.315208435E-1,-1.130658783E1,-2.550695801E0,1.162051653E1
1.209520608E1,6.032455444E-1,-1.196836166E1,-2.113904114E0,1.216857332E1
1.210517908E1,3.209326172E-1,-1.211221252E1,-2.479294281E0,1.236752158E1
1.211515108E1,-1.633103943E-1,-1.175430679E1,-3.827690277E0,1.236291274E1
1.212512408E1,-3.652404785E-1,-1.180759598E1,-3.218157806E0,1.224374383E1
1.213509608E1,6.325845337E-1,-1.339983490E1,-1.979633331E0,1.356004007E1
1.214506908E1,1.228794708E0,-1.561058762E1,-2.180814972E0,1.581000747E1
1.215504108E1,2.035317535E0,-1.706331665E1,-1.939516754E0,1.729338075E1
1.216501408E1,2.754871216E0,-1.680749863E1,-6.267466736E-1,1.704330182E1
1.217498608E1,2.566113739E0,-1.580653015E1,2.914439392E-1,1.601612546E1
1.218495908E1,2.256258087E0,-1.499192413E1,4.186793518E-1,1.516653494E1
1.219493108E1,2.682571564E0,-1.464584381E1,8.517288208E-2,1.488973423E1
1.220490417E1,3.200344849E0,-1.465916611E1,-5.382806396E-1,1.501409685E1
1.221487617E1,3.290756836E0,-1.448013840E1,-1.269959106E0,1.490356617E1
1.222484917E1,3.082539825E0,-1.350641327E1,-1.924697571E0,1.398676917E1
1.223482117E1,3.642675018E0,-1.274150391E1,-1.405876465E0,1.332634578E1
1.224479417E1,3.394042053E0,-1.285556671E1,1.417552185E-1,1.329681208E1
1.225476617E1,3.600612488E0,-1.238973541E1,9.810598755E-1,1.293956848E1
1.226473917E1,1.778002625E0,-1.154189850E1,-4.599934387E-1,1.168710008E1
1.227471117E1,-6.896159363E-1,-1.157497971E1,-2.572400665E0,1.187741430E1
1.228468417E1,-1.870659943E0,-1.184352127E1,-2.907553711E0,1.233783746E1
1.229465617E1,-1.879192200E0,-1.220202576E1,-1.815574493E0,1.247866606E1
1.230462917E1,-6.149212646E-1,-1.103400467E1,-1.056053925E0,1.110147004E1
1.231460117E1,5.947132874E-1,-9.161847839E0,-7.241940308E-1,9.209646938E0
1.232457417E1,4.635859680E-1,-8.099357300E0,-2.686912537E-1,8.117062006E0
1.233454617E1,1.305884399E0,-6.101162567E0,4.775070190E-2,6.239535148E0
1.234451917E1,2.108365631E0,-4.212839355E0,6.045927429E-1,4.749605610E0
1.235449117E1,1.456920319E0,-3.002306671E0,-7.863148499E-1,3.428520556E0
1.236446417E1,1.376238098E0,-2.771336975E0,-1.295555878E0,3.354520080E0
1.237443617E1,1.803749084E0,-2.652484131E0,-1.971400452E-1,3.213727901E0
1.238440917E1,2.174827423E0,-2.589914246E0,4.397854614E-1,3.410416598E0
1.239438117E1,2.082768860E0,-2.667752380E0,6.607260132E-1,3.448389153E0
1.240435417E1,2.055076447E0,-2.722388763E0,7.123686218E-1,3.484567238E0
1.241432717E1,2.092348938E0,-2.686762848E0,1.775308228E-1,3.410005260E0
1.242429917E1,2.197580109E0,-2.392774200E0,-3.857478333E-1,3.271624688E0
1.243427117E1,2.122586060E0,-1.910028076E0,-9.232800293E-1,3.001003973E0
1.244424417E1,1.880539398E0,-1.484463043E0,-1.719773712E0,2.949183035E0
1.245421717E1,1.217118988E0,-1.862576752E0,-2.301763458E0,3.201356869E0
1.246418917E1,8.583151245E-1,-2.681823120E0,-3.149600372E0,4.224791427E0
1.247416217E1,7.005432129E-1,-3.306174774E0,-4.068090363E0,5.288753315E0
1.248413417E1,7.747888184E-1,-3.703149261E0,-5.132975922E0,6.376602071E0
1.249410717E1,8.089178467E-1,-4.235292664E0,-6.587201843E0,7.872946091E0
1.250407917E1,7.994874573E-1,-5.289250946E0,-8.608748016E0,1.013537854E1
1.251405217E1,-3.356021118E-1,-6.887627106E0,-1.100930603E1,1.299064491E1
1.252402417E1,-6.930587769E-1,-8.987460480E0,-1.205757614E1,1.505456471E1
1.253399717E1,-5.059478760E-1,-1.177107193E1,-1.078612015E1,1.597355644E1
1.254396917E1,-6.248007202E-1,-1.435724396E1,-9.613159332E0,1.728969816E1
1.255394217E1,-2.806663513E-1,-1.550805084E1,-9.210646362E0,1.803924668E1
1.256391417E1,3.929328918E-1,-1.390608215E1,-8.944799194E0,1.653913389E1
1.257388717E1,1.204545135E0,-1.087443649E1,-8.655750275E0,1.395085341E1
1.258385917E1,1.328637085E0,-7.967331848E0,-8.964109039E0,1.206643709E1
1.259383217E1,1.153201904E0,-5.559439087E0,-8.967102814E0,1.061349002E1
1.260380417E1,1.675166473E0,-4.654720459E0,-8.368198242E0,9.721077465E0
1.261377717E1,3.063529358E0,-6.603517914E0,-6.107000427E0,9.501953230E0
1.262374917E1,4.836442566E0,-1.054557037E1,2.191442871E-1,1.160380349E1
1.263372217E1,7.703131256E0,-1.402044434E1,4.308789825E0,1.656734017E1
1.264369417E1,9.927056580E0,-1.624272308E1,3.222648468E0,1.930694094E1
1.265366717E1,9.614356842E0,-1.791968582E1,-1.304686890E0,2.037776252E1
1.266363917E1,5.695356445E0,-1.850377121E1,-5.490582275E0,2.012394414E1
1.267361217E1,-1.957928467E-1,-1.645812515E1,-8.500373383E0,1.852470151E1
1.268358417E1,-7.237449646E-1,-1.253837631E1,-1.306932220E0,1.262706455E1
1.269355717E1,1.882934418E0,-6.379433899E0,4.341272278E0,7.942875039E0
1.270352917E1,3.238665161E0,-2.950664062E0,1.210682373E0,4.545450720E0
1.271350217E1,3.232976990E0,-3.267854462E0,-1.958377533E0,4.996624417E0
1.272347417E1,2.975362701E0,-4.547693024E0,-7.864645386E-1,5.491158486E0
1.273344717E1,2.409389648E0,-7.386240234E0,1.623374176E0,7.937067909E0
1.274341917E1,9.053173828E-1,-1.026041336E1,1.475032654E0,1.040535455E1
1.275339217E1,-2.924917603E-1,-1.173499695E1,1.340761871E0,1.181496285E1
1.276336417E1,-5.373825073E-1,-1.209320206E1,2.034269714E0,1.227487553E1
1.277333717E1,-6.673123169E-1,-1.237910751E1,5.683680725E-1,1.241010277E1
1.278330917E1,-4.302053833E-1,-1.236428833E1,-1.959724731E0,1.252602186E1
1.279328217E1,6.201603699E-1,-1.202748871E1,-2.223176880E0,1.224694243E1
1.280325417E1,1.074465637E0,-1.175445648E1,-1.899699554E0,1.195535788E1
1.281322717E1,6.768923950E-1,-1.151240982E1,-2.259102173E0,1.175148101E1
1.282319917E1,7.674540710E-1,-1.078043198E1,-2.963537292E0,1.120666108E1
1.283317217E1,6.026467896E-1,-9.914632416E0,-2.594554596E0,1.026619855E1
1.284314417E1,3.393443298E-1,-9.347761230E0,-1.704954529E0,9.508031581E0
1.285311717E1,8.355624390E-1,-8.815767517E0,-1.441652069E0,8.971860576E0
1.286308917E1,1.403032379E0,-8.758436737E0,-1.234033813E0,8.955531999E0
1.287306217E1,1.512754211E0,-9.119785309E0,-1.080602875E0,9.307341831E0
1.288303417E1,9.554631042E-1,-9.516759796E0,-9.375004578E-1,9.610438797E0
1.289300717E1,3.948788452E-1,-9.575437775E0,-3.354524231E-1,9.589445563E0
1.290297917E1,6.286926270E-2,-9.305698700E0,1.471440125E-1,9.307074309E0
1.291295217E1,2.466870117E-1,-8.984167328E0,2.128573608E-1,8.990073710E0
1.292292417E1,9.565109253E-2,-8.463699646E0,-1.369651794E-1,8.465348208E0
1.293289717E1,1.513352966E-1,-7.834408264E0,-3.821553040E-1,7.845183102E0
1.294286917E1,6.776408386E-1,-7.154522095E0,-7.538323975E-1,7.225970301E0
1.295284217E1,1.368454285E0,-6.838529205E0,-1.613494720E0,7.158317822E0
1.296281417E1,1.667382660E0,-7.009174347E0,-2.398013306E0,7.593362745E0
1.297278717E1,1.458866272E0,-7.765102386E0,-2.529440002E0,8.295973276E0
1.298275917E1,1.638492737E0,-8.426876221E0,-2.241438904E0,8.872482722E0
1.299273217E1,1.351539459E0,-9.053323517E0,-1.627116394E0,9.297141140E0
1.300270417E1,1.008901978E0,-9.390123138E0,-1.303639069E0,9.533717563E0
1.301267717E1,4.278103638E-1,-9.756261749E0,-9.931846619E-1,9.816011451E0
1.302264917E1,-5.583389282E-2,-1.020592667E1,-2.763253784E-1,1.020981940E1
1.303262217E1,-4.402345276E-1,-1.037043457E1,8.265811157E-1,1.041263444E1
1.304259417E1,-1.924996948E-1,-1.018467087E1,1.620230713E0,1.031453947E1
1.305256717E1,5.495072937E-1,-9.687704315E0,1.819616089E0,9.872414896E0
1.306253917E1,1.617386627E0,-8.994046783E0,9.714797974E-1,9.189809032E0
1.307251217E1,3.114124146E0,-8.877888336E0,-1.394500122E0,9.511009468E0
1.308248417E1,3.772455139E0,-9.438173218E0,-3.577560425E0,1.077541044E1
1.309245717E1,3.427871704E0,-1.024125320E1,-3.827091522E0,1.145775725E1
1.310242917E1,2.574047241E0,-1.132904114E1,-2.850821686E0,1.196244442E1
1.311240217E1,1.476379852E0,-1.218585938E1,-1.598825226E0,1.237865535E1
1.312237517E1,8.075706482E-1,-1.234946915E1,-9.942324829E-1,1.241571813E1
1.313234717E1,5.890251160E-1,-1.172706345E1,-8.181985474E-1,1.177031930E1
1.314232017E1,1.761836243E-1,-1.095931000E1,-1.384171600E0,1.104778020E1
1.315229217E1,-6.780899048E-2,-1.010638367E1,-2.290686493E0,1.036295486E1
1.316226517E1,-5.233117676E-1,-9.362879791E0,-3.208278351E0,9.911126231E0
1.317223717E1,-1.108894043E0,-9.290430450E0,-3.797004089E0,1.009747414E1
1.318221017E1,-1.559457092E0,-1.067505112E1,-3.982019348E0,1.149978699E1
1.319218217E1,-1.661395111E0,-1.253373596E1,-3.631148987E0,1.315446745E1
1.320215467E1,-1.566193085E0,-1.379576157E1,-2.652933197E0,1.413555986E1
1.321212667E1,-1.476679230E0,-1.441861633E1,-2.370171204E0,1.468655133E1
1.322209967E1,-2.035317535E0,-1.423973831E1,-2.921923828E0,1.467822549E1
1.323207167E1,-2.137704620E0,-1.305704773E1,-3.238515472E0,1.362146317E1
1.324204467E1,-1.075064392E0,-1.204560104E1,-2.126477966E0,1.227901366E1
1.325201667E1,3.637435913E-1,-1.292816574E1,-1.140178986E0,1.298344280E1
1.326198967E1,1.397643585E0,-1.343231735E1,-1.306932220E0,1.356792648E1
1.327196167E1,2.546205139E0,-1.402194122E1,-2.808908844E0,1.452542478E1
1.328193467E1,3.150947571E0,-1.444391373E1,-2.618355103E0,1.501369035E1
1.329190667E1,2.556533661E0,-1.495090942E1,-1.044827271E0,1.520385546E1
1.330187967E1,1.600022736E0,-1.512200363E1,7.891589355E-1,1.522687881E1
1.331185167E1,1.515598297E0,-1.518367538E1,1.597028961E0,1.534247496E1
1.332182467E1,1.777553558E0,-1.461171478E1,4.466711426E-1,1.472621542E1
1.333179667E1,1.844015350E0,-1.357197693E1,-1.248852997E0,1.375349353E1
1.334176967E1,2.800975342E0,-1.328696960E1,-1.721270599E0,1.368765125E1
1.335174167E1,2.565215607E0,-1.371672592E1,-2.068548431E0,1.410701222E1
1.336171467E1,2.139650574E0,-1.447115707E1,3.288661194E-1,1.463217839E1
1.337168667E1,3.963757324E-1,-1.496168701E1,1.213975525E0,1.501608899E1
1.338165967E1,-1.388662262E0,-1.552227127E1,-5.137316895E-1,1.559272935E1
1.339163167E1,-1.717378693E0,-1.567779785E1,-1.848056946E0,1.587948518E1
1.340160467E1,-6.890171814E-1,-1.398616562E1,-1.223106537E0,1.405644205E1
1.341157667E1,7.081773376E-1,-1.135059631E1,-7.065307617E-2,1.137288634E1
1.342154967E1,1.570683746E0,-8.992250519E0,5.968089294E-1,9.147884877E0
1.343152167E1,1.091380463E0,-7.930957489E0,1.425186310E0,8.131565287E0
1.344149467E1,8.431965637E-1,-7.462880859E0,1.170865173E0,7.601085213E0
1.345146667E1,1.610500946E0,-5.179978180E0,1.253193970E0,5.567439480E0
1.346143967E1,2.241588593E0,-2.246079254E0,5.364843750E-1,3.218292547E0
1.347141167E1,2.583178253E0,-1.186133423E0,-5.643264771E-1,2.897962518E0
1.348138467E1,2.666554871E0,-1.852397919E0,-2.691403198E-1,3.257964002E0
1.349135667E1,2.531086578E0,-2.438429260E0,8.981323242E-4,3.514589212E0
1.350132967E1,2.612068176E0,-2.765499115E0,2.995271301E-1,3.815835690E0
1.351130167E1,2.624043274E0,-3.117716675E0,7.261399841E-1,4.139207611E0
1.352127467E1,2.437531128E0,-3.043620758E0,4.688250732E-1,3.927465120E0
1.353124667E1,2.017354889E0,-2.584824829E0,-7.514373779E-2,3.279738820E0
1.354121967E1,1.686991882E0,-2.084714813E0,-4.933740234E-1,2.726792143E0
1.355119167E1,1.456171875E0,-1.613345032E0,-9.668394470E-1,2.378675522E0
1.356116467E1,1.492695923E0,-1.419498138E0,-1.505269775E0,2.551265016E0
1.357113667E1,1.570084991E0,-1.563049622E0,-2.144290924E0,3.083224703E0
1.358110967E1,1.523831177E0,-1.861079865E0,-3.077749786E0,3.906177603E0
1.359108167E1,9.205856323E-1,-2.378553772E0,-4.087549896E0,4.817993369E0
1.360105467E1,9.385482788E-2,-3.177292786E0,-5.176685028E0,6.074707076E0
1.361102667E1,5.532495117E-1,-3.988605652E0,-7.089257813E0,8.153075273E0
1.362099967E1,1.133143616E-1,-5.551655273E0,-9.206904144E0,1.075178126E1
1.363097167E1,-6.484515381E-1,-8.046966248E0,-1.115465378E1,1.376954814E1
1.364094467E1,-1.534309387E-1,-1.132963989E1,-1.167287613E1,1.626776931E1
1.365091667E1,4.348457336E-1,-1.397284332E1,-1.131242569E1,1.798333719E1
1.366088967E1,9.419911194E-1,-1.564157318E1,-1.122964783E1,1.927825586E1
1.367086167E1,8.286767578E-1,-1.474733276E1,-1.031654663E1,1.801670511E1
1.368083467E1,1.112636261E0,-1.150732040E1,-8.801397400E0,1.453000270E1
1.369080667E1,9.713301086E-1,-8.738977203E0,-8.083041229E0,1.194356564E1
1.370077967E1,1.044827271E-1,-6.550528107E0,-8.637188873E0,1.084072722E1
1.371075167E1,1.413061523E-1,-4.508923645E0,-9.667196960E0,1.066794530E1
1.372072467E1,1.169368286E0,-3.398832092E0,-8.153394928E0,8.910517978E0
1.373069667E1,1.431323547E0,-4.532724152E0,-9.120533752E-1,4.840053377E0
1.374066967E1,3.698508911E0,-7.323520660E0,5.560636597E0,9.911286616E0
1.375064267E1,7.409292297E0,-1.054871384E1,6.880142670E0,1.461195877E1
1.376061467E1,1.000579285E1,-1.412836990E1,4.011957092E0,1.777139630E1
1.377058667E1,9.864935760E0,-1.852472763E1,-4.777165833E0,2.152449314E1
1.378055967E1,5.527555389E0,-2.565619766E1,-1.683908295E1,3.118251211E1
1.379053267E1,2.133363647E0,-2.626932266E1,-1.501482651E1,3.033271450E1
1.380050467E1,3.220403137E0,-1.529010406E1,-1.848655701E-1,1.562665844E1
1.381047767E1,3.524869995E0,-4.369413757E0,4.537214813E0,7.218227160E0
1.382044967E1,3.948339386E0,3.376977539E-1,2.735261993E0,4.815088977E0
1.383042267E1,4.016148376E0,-9.265731812E-2,4.882846069E-1,4.046783293E0
1.384039467E1,3.382965088E0,-2.926264801E0,1.516197052E0,4.722957968E0
1.385036767E1,1.584305420E0,-6.486161957E0,3.265758820E0,7.432731750E0
1.386033967E1,7.939489746E-1,-9.567354584E0,3.757336578E0,1.030932621E1
1.387031267E1,6.722520447E-1,-1.106678650E1,3.100053406E0,1.151242882E1
1.388028467E1,3.409909058E-1,-1.164338745E1,1.683549042E0,1.176941305E1
1.389025767E1,-6.297404480E-1,-1.306632843E1,-2.800675964E-1,1.308449271E1
1.390022967E1,-8.807684326E-1,-1.440888657E1,-2.031275940E0,1.457799187E1
1.391020267E1,-7.354206848E-1,-1.535881119E1,-2.625989227E0,1.559903023E1
1.392017467E1,-6.643185425E-1,-1.520448212E1,-2.459086304E0,1.541637769E1
1.393014767E1,-9.325607300E-2,-1.302127213E1,-1.910477142E0,1.316100860E1
1.394011967E1,6.737489319E-1,-1.048988617E1,-1.567839661E0,1.062778296E1
1.395009267E1,8.084687805E-1,-8.879983978E0,-1.638941803E0,9.066083358E0
1.396006467E1,1.146016846E0,-8.408763885E0,-2.020797729E0,8.723777173E0
1.397003767E1,1.805545349E0,-8.511600037E0,-1.788181458E0,8.882844258E0
1.398000967E1,2.163301392E0,-8.646020508E0,-1.606908417E0,9.056251884E0
1.398998267E1,1.975891113E0,-8.642278290E0,-1.598076782E0,9.008161251E0
1.399995467E1,1.518891449E0,-8.706794128E0,-1.358724518E0,8.942115384E0
1.400992767E1,1.187480621E0,-9.080117798E0,-1.117575989E0,9.225379425E0
1.401989967E1,1.124162292E0,-9.274862823E0,-8.333171082E-1,9.379831483E0
1.402987267E1,1.397643585E0,-8.798703003E0,-8.340655518E-1,8.947974490E0
1.403984467E1,1.535656586E0,-8.445437622E0,-1.273701324E0,8.677901408E0
1.404981767E1,1.825603638E0,-8.229586487E0,-1.870510254E0,8.634681870E0
1.405978967E1,1.852547607E0,-8.235873413E0,-2.337838440E0,8.759396788E0
1.406976267E1,1.706152039E0,-7.996371460E0,-2.259850616E0,8.482914364E0
1.407973467E1,1.686842194E0,-7.890242157E0,-2.145338745E0,8.348882333E0
1.408970767E1,1.285676422E0,-7.907306671E0,-1.818867645E0,8.215031477E0
1.409967967E1,1.259331207E0,-8.103847961E0,-1.460512848E0,8.330147937E0
1.410965267E1,1.318757629E0,-8.310268707E0,-9.991722107E-1,8.473371984E0
1.411962467E1,1.365011444E0,-8.404572601E0,-3.847000122E-1,8.523384947E0
1.412959767E1,1.210233307E0,-8.640482025E0,3.761677551E-1,8.732931722E0
1.413956967E1,9.617500305E-1,-8.824748840E0,1.068627777E0,8.941091686E0
1.414954267E1,7.626640320E-1,-9.108858032E0,1.471140747E0,9.258358719E0
1.415951467E1,5.688171387E-1,-9.422755280E0,1.469194794E0,9.553554487E0
1.416948767E1,3.620970154E-1,-9.721983032E0,1.064436493E0,9.786781564E0
1.417945967E1,1.942959595E-1,-9.912836151E0,4.050576782E-1,9.923010793E0
1.418943267E1,4.490661621E-2,-9.934541016E0,-1.610650635E-1,9.935948055E0
1.419940492E1,-1.496887207E-1,-9.882449341E0,-7.559280396E-1,9.912448683E0
1.420937792E1,-3.016227722E-1,-1.004171814E1,-1.841021576E0,1.021354199E1
1.421934992E1,-2.820135498E-1,-1.022358994E1,-3.341651001E0,1.075955177E1
1.422932292E1,1.975891113E-1,-1.012105316E1,-4.159999237E0,1.094442105E1
1.423929492E1,6.345304871E-1,-9.999655609E0,-3.814817047E0,1.072140711E1
1.424926792E1,8.484356689E-1,-1.037881714E1,-2.362686768E0,1.067810737E1
1.425923992E1,7.708969116E-1,-1.091350525E1,-7.653584290E-1,1.096743600E1
1.426921292E1,4.493655396E-1,-1.112785950E1,-1.139131165E-1,1.113751151E1
1.427918492E1,1.770817566E-1,-1.103610031E1,-6.860234070E-1,1.105881984E1
1.428915792E1,8.936416626E-2,-1.078746735E1,-1.778302002E0,1.093342562E1
1.429912992E1,9.535171509E-2,-1.061936691E1,-2.874322815E0,1.100189880E1
1.430910292E1,8.786727905E-2,-1.031609756E1,-3.220702515E0,1.080752119E1
1.431907492E1,-2.146536255E-1,-1.011461655E1,-3.136278076E0,1.059187350E1
1.432904792E1,-5.186714172E-1,-1.020457947E1,-2.763253784E0,1.058480201E1
1.433901992E1,-7.165599060E-1,-1.087877747E1,-2.259251862E0,1.113397845E1
1.434899292E1,-9.562115479E-1,-1.185055664E1,-2.514471130E0,1.215206148E1
1.435896492E1,-1.193917236E0,-1.267070114E1,-3.393892365E0,1.317158347E1
1.436893792E1,-1.334175568E0,-1.208062820E1,-3.886517944E0,1.276035360E1
1.437890992E1,-1.179547119E-1,-1.160761185E1,-3.702999573E0,1.218453003E1
1.438888292E1,2.475102997E0,-1.327334793E1,-3.258274384E0,1.388971750E1
1.439885592E1,3.623963928E0,-1.506272690E1,-2.531086578E0,1.569793794E1
1.440882792E1,3.542233887E0,-1.498967880E1,-1.415905609E0,1.546747168E1
1.441880092E1,2.881208496E0,-1.502156250E1,-1.133742371E0,1.533734247E1
1.442877292E1,2.145189056E0,-1.559651688E1,-1.109193420E0,1.578237893E1
1.443874592E1,2.630479889E0,-1.582434311E1,-1.000519409E0,1.607265685E1
1.444871792E1,2.900817719E0,-1.574096649E1,-4.287084961E-1,1.601176319E1
1.445869092E1,2.352507935E0,-1.512888931E1,2.749781799E-1,1.531317075E1
1.446866292E1,1.458566895E0,-1.399290161E1,-2.995271301E-1,1.407190212E1
1.447863592E1,1.387015686E0,-1.280392410E1,-1.349593506E0,1.294935086E1
1.448860792E1,2.521656189E0,-1.272503815E1,-8.562194824E-2,1.297276674E1
1.449858092E1,2.692750397E0,-1.349099533E1,-4.550537109E-1,1.376462617E1
1.450855292E1,1.124910736E0,-1.470392303E1,1.266366577E-1,1.474743414E1
1.451852592E1,-7.439529419E-1,-1.500494705E1,-1.229243774E0,1.507358425E1
1.452849792E1,-1.744023285E0,-1.489896744E1,-3.394341431E0,1.537993503E1
1.453847092E1,-1.372495880E0,-1.441517349E1,-2.556683350E0,1.470433955E1
1.454844292E1,-3.535647583E-1,-1.310554688E1,-1.282532959E0,1.317289861E1
1.455841592E1,7.876620483E-1,-1.116243759E1,-4.617897034E-1,1.119971760E1
1.456838792E1,1.955832825E0,-8.857680359E0,1.673519897E-1,9.072584531E0
1.457836092E1,2.255060577E0,-7.398514709E0,4.769082642E-1,7.749242518E0
1.458833292E1,2.012564850E0,-6.048472137E0,9.047186279E-1,6.438396405E0
1.459830592E1,1.908381500E0,-4.410578156E0,2.000140686E0,5.205351322E0
1.460827792E1,2.956052856E0,-3.118016052E0,1.931882629E0,4.710885595E0
1.461825092E1,3.529210968E0,-8.198451233E-1,7.559280396E-2,3.623974387E0
1.462822292E1,3.567381592E0,-2.194436646E-1,-6.322851562E-1,3.629621394E0
1.463819592E1,3.330274658E0,-1.001716919E0,3.797602844E-1,3.498340172E0
1.464816792E1,2.983146515E0,-1.913171539E0,1.472937012E-1,3.546982366E0
1.465814092E1,2.332599335E0,-2.750530243E0,-3.362008667E-1,3.622080520E0
1.466811292E1,1.649569702E0,-3.632346497E0,-3.486250305E-1,4.004567478E0
1.467808592E1,1.397493896E0,-3.770060120E0,-6.026467896E-1,4.065651934E0
1.468805792E1,1.315015411E0,-3.261118469E0,-1.005608826E0,3.657240533E0
1.469803092E1,1.301094360E0,-2.677033081E0,-1.451531525E0,3.311539886E0
1.470800292E1,1.252146149E0,-2.615810394E0,-1.858684845E0,3.444567222E0
1.471797592E1,1.185834045E0,-3.027604065E0,-2.326312408E0,3.998039292E0
1.472794792E1,9.647438049E-1,-3.480412445E0,-2.709216156E0,4.514848123E0
1.473792092E1,7.940986633E-1,-4.061354370E0,-3.371139679E0,5.337581357E0
1.474789292E1,7.276368713E-1,-4.511168976E0,-4.557572479E0,6.453802588E0
1.475786592E1,5.995033264E-1,-5.116061096E0,-6.180796967E0,8.045852131E0
1.476783792E1,8.178991699E-1,-6.413562927E0,-7.742499390E0,1.008707318E1
1.477781092E1,5.474116516E-1,-8.038433990E0,-1.019499939E1,1.299438698E1
1.478778292E1,8.711883545E-2,-9.842332764E0,-1.266291733E1,1.603834715E1
1.479775592E1,4.125421143E-1,-1.224992615E1,-1.388856857E1,1.852358547E1
1.480772792E1,3.303630066E-1,-1.420126831E1,-1.296169601E1,1.922994345E1
1.481770092E1,6.791377258E-1,-1.441652069E1,-1.062191162E1,1.791988570E1
1.482767292E1,1.188977509E0,-1.262594421E1,-8.527167664E0,1.528203923E1
1.483764592E1,1.929188232E0,-1.035366943E1,-7.258406067E0,1.279080516E1
1.484761792E1,2.369273071E0,-8.771010590E0,-6.720574493E0,1.130089391E1
1.485759092E1,2.692600708E0,-7.410340118E0,-6.443201294E0,1.018224347E1
1.486756292E1,2.920876007E0,-6.283782806E0,-6.504723358E0,9.504150092E0
1.487753592E1,3.874093781E0,-6.606811066E0,-6.724765778E0,1.019220437E1
1.488750792E1,4.706363068E0,-8.611143036E0,-5.014721832E0,1.102039349E1
1.489748092E1,3.995491333E0,-1.034588562E1,-1.108295288E0,1.114583414E1
1.490745292E1,4.581822052E0,-1.113803833E1,7.077282715E-1,1.206440510E1
1.491742592E1,5.356012115E0,-1.026939468E1,-8.714877319E-1,1.161493968E1
1.492739792E1,5.232818298E0,-9.088799744E0,-3.442690887E0,1.103815151E1
1.493737092E1,4.087250519E0,-8.511899414E0,-4.595144348E0,1.050111423E1
1.494734292E1,2.795287170E0,-8.439450073E0,-6.415808258E0,1.096360085E1
1.495731592E1,2.534230042E0,-8.662037201E0,-4.742587738E0,1.019535918E1
1.496728792E1,3.700903931E0,-8.583001556E0,-2.460882568E-1,9.350142515E0
1.497726092E1,4.307292938E0,-8.995843048E0,5.191204834E-1,9.987364551E0
1.498723292E1,3.423081665E0,-1.013886612E1,-2.493814087E-1,1.070403127E1
1.499720592E1,1.851200409E0,-1.143382324E1,-2.522254944E-1,1.158545962E1
1.500717792E1,6.480024719E-1,-1.201237015E1,7.875123596E-1,1.205558458E1
1.501715092E1,2.977308655E-1,-1.184456909E1,2.441572723E0,1.209726159E1
1.502712292E1,5.153782654E-1,-1.097158447E1,2.001338196E0,1.116452575E1
1.503709592E1,7.411088562E-1,-1.013332764E1,7.258406067E-1,1.018628568E1
1.504706792E1,8.155041504E-1,-1.024200165E1,-6.506968689E-1,1.029500127E1
1.505704092E1,6.489006042E-1,-1.108145599E1,-1.604663086E0,1.121582287E1
1.506701292E1,8.893006897E-1,-1.157108780E1,-1.551972656E0,1.170852457E1
1.507698592E1,1.843566284E0,-1.149145340E1,-1.280587006E0,1.170863532E1
1.508695792E1,2.434237976E0,-1.154414383E1,-1.007255402E0,1.184091782E1
1.509693092E1,2.793790283E0,-1.120704483E1,-8.396040344E-1,1.158050314E1
1.510690292E1,3.117716675E0,-9.981992340E0,-4.790039062E-1,1.046851341E1
1.511687592E1,2.839445343E0,-8.933572540E0,1.628613281E-1,9.375376899E0
1.512684792E1,2.109712830E0,-9.047934723E0,7.509883118E-1,9.320943859E0
1.513682092E1,1.588796082E0,-9.620643768E0,9.168434143E-1,9.793960453E0
1.514679292E1,1.260528717E0,-9.900112610E0,7.595205688E-1,1.000889773E1
1.515676592E1,7.074288940E-1,-9.812694397E0,8.502319336E-1,9.874832723E0
1.516673792E1,2.890489197E-1,-9.696086884E0,1.040486298E0,9.756037201E0
1.517671092E1,9.595046997E-2,-9.422455902E0,4.442761230E-1,9.433412055E0
1.518668292E1,2.600093079E-1,-8.909772034E0,-6.490502930E-1,8.937164473E0
1.519665592E1,5.418731689E-2,-8.778944092E0,-1.419797516E0,8.893178319E0
1.520662829E1,-1.320254517E-1,-9.202712860E0,-1.759890289E0,9.370409198E0
1.521660129E1,3.218307495E-1,-9.693093109E0,-2.011966095E0,9.904929915E0
1.522657329E1,4.396357727E-1,-9.832752686E0,-2.048490143E0,1.005348780E1
1.523654629E1,5.273533630E-1,-9.557325439E0,-2.381547546E0,9.863687943E0
1.524651929E1,7.337741089E-1,-8.666677551E0,-2.534679108E0,9.059487977E0
1.525649129E1,1.019679565E0,-7.655530243E0,-2.615061951E0,8.153860357E0
1.526646429E1,1.156495056E0,-7.328759766E0,-2.460283813E0,7.816725463E0
1.527643629E1,1.090781708E0,-7.798482971E0,-1.783391418E0,8.073823527E0
1.528640829E1,8.051756287E-1,-8.525820465E0,-8.204438782E-1,8.602967543E0
1.529638129E1,3.894900513E-1,-9.089398499E0,2.185455322E-1,9.100364263E0
1.530635429E1,5.463638306E-2,-9.439370728E0,1.048868866E0,9.497622374E0
1.531632629E1,4.400848389E-2,-9.603878632E0,1.395398254E0,9.704821369E0
1.532629929E1,6.780899048E-2,-9.693691864E0,1.081950073E0,9.754120974E0
1.533627129E1,-4.775070190E-2,-9.899962921E0,7.424560547E-2,9.900356477E0
1.534624429E1,-8.861572266E-2,-1.014934433E1,-1.495839386E0,1.025936541E1
1.535621629E1,3.867956543E-1,-1.031160690E1,-2.897674255E0,1.071799253E1
1.536618929E1,1.010249176E0,-1.059272232E1,-3.605552216E0,1.123505124E1
1.537616129E1,1.213676147E0,-1.089868607E1,-3.446133728E0,1.149479036E1
1.538613429E1,9.816586304E-1,-1.131167725E1,-2.430346069E0,1.161138570E1
1.539610629E1,4.314028931E-1,-1.159473862E1,-1.550775146E0,1.170593762E1
1.540607929E1,-3.847000122E-1,-1.151929550E1,-8.916957092E-1,1.156015935E1
1.541605129E1,-9.145980835E-1,-1.170236481E1,-8.204438782E-1,1.176668857E1
1.542602429E1,-1.108744354E0,-1.165356628E1,-1.061293030E0,1.175420198E1
1.543599629E1,-9.277706909E-1,-1.126841721E1,-1.338366852E0,1.138548245E1
1.544596929E1,-4.355941772E-1,-1.090138046E1,-2.600093079E0,1.121562848E1
1.545594129E1,-7.185058594E-3,-1.089554260E1,-3.478616180E0,1.143738042E1
1.546591429E1,-1.607656860E-1,-1.160970749E1,-2.971620483E0,1.198506078E1
1.547588629E1,-2.264790344E-1,-1.256651779E1,-1.924996948E0,1.271511995E1
1.548585929E1,7.214996338E-2,-1.336630463E1,-1.103804626E0,1.341199797E1
1.549583129E1,7.864645386E-1,-1.360161530E1,-1.091679840E0,1.366800022E1
1.550580429E1,1.863774261E0,-1.301648209E1,-1.854643250E0,1.327938861E1
1.551577629E1,2.394720154E0,-1.266665955E1,-3.058589630E0,1.324892144E1
1.552574929E1,3.239862671E0,-1.278162048E1,-3.714226227E0,1.369897838E1
1.553572129E1,4.449048157E0,-1.497036896E1,-3.823648682E0,1.607875199E1
1.554569429E1,4.843777313E0,-1.604797806E1,-2.525847473E0,1.695227666E1
1.555566629E1,4.210893402E0,-1.483984039E1,-4.333488464E-1,1.543179437E1
1.556563929E1,3.807482300E0,-1.389111328E1,9.810598755E-1,1.443684273E1
1.557561129E1,4.947212219E0,-1.326212128E1,1.133892059E0,1.420015777E1
1.558558429E1,5.674400024E0,-1.297756302E1,9.322613525E-1,1.419454363E1
1.559555629E1,5.598208466E0,-1.280452286E1,5.716612244E-1,1.398651280E1
1.560552929E1,5.740412750E0,-1.240425522E1,-4.417314148E-1,1.367527011E1
1.561550129E1,5.570965118E0,-1.183124680E1,-1.839075623E0,1.320591732E1
1.562547429E1,4.492757263E0,-1.174622360E1,-1.338815918E0,1.264717616E1
1.563544629E1,3.872297516E0,-1.178828613E1,-2.948867798E-1,1.241150016E1
1.564541929E1,3.121758270E0,-1.181029037E1,2.187101898E0,1.241014698E1
1.565539129E1,1.335672455E0,-1.148606461E1,2.695893860E-1,1.156660622E1
1.566536429E1,-9.969268799E-2,-1.146885040E1,-8.619076538E-1,1.150162393E1
1.567533629E1,-5.542973328E-1,-1.081321381E1,-1.016685791E0,1.087503969E1
1.568530929E1,-1.595681763E-1,-9.844877472E0,-2.240840149E-1,9.848720124E0
1.569528129E1,4.101470947E-1,-9.023834839E0,2.131567383E-1,9.035665534E0
1.570525429E1,3.815565491E-1,-8.308322754E0,2.607577515E-1,8.321166204E0
1.571522629E1,2.113604736E-1,-7.335346069E0,-1.583706665E-1,7.340099214E0
1.572519929E1,3.165916443E-1,-6.483617249E0,-1.170715485E0,6.596066831E0
1.573517129E1,1.116977234E0,-5.409900055E0,-1.283431091E0,5.671142046E0
1.574514429E1,2.284100189E0,-3.810027008E0,-2.206411743E-1,4.447707500E0
1.575511629E1,2.960842896E0,-2.793041840E0,-9.138496399E-1,4.171665679E0
1.576508929E1,2.344424744E0,-2.979703674E0,-1.433568878E0,4.053403643E0
1.577506129E1,1.657952271E0,-3.079546051E0,-6.887178040E-1,3.564651712E0
1.578503429E1,1.227746887E0,-2.849923553E0,-6.662644958E-1,3.173851770E0
1.579500629E1,8.738827515E-1,-2.613565063E0,-6.956034851E-1,2.842227579E0
1.580497929E1,5.448669434E-1,-2.870281219E0,-4.887336731E-1,2.962136875E0
1.581495129E1,4.969665527E-1,-3.270249481E0,-5.728587341E-1,3.357033594E0
1.582492429E1,4.589456177E-1,-3.474424896E0,-1.031954041E0,3.653380432E0
1.583489629E1,2.727328491E-1,-3.535797272E0,-1.584604797E0,3.884226811E0
1.584486929E1,6.526428223E-2,-3.562890930E0,-2.025887146E0,4.099105992E0
1.585484129E1,-8.861572266E-2,-3.702101440E0,-2.476450195E0,4.454908909E0
1.586481429E1,-3.592529297E-1,-4.272565155E0,-3.029250641E0,5.249784292E0
1.587478629E1,-2.486329651E-1,-5.700745239E0,-3.759581909E0,6.833357210E0
1.588475929E1,-8.825646973E-1,-6.643784180E0,-4.557871857E0,8.105120883E0
1.589473129E1,-1.151854706E0,-7.294031982E0,-5.904471588E0,9.454758408E0
1.590470429E1,-1.400038605E0,-8.629405060E0,-8.209528198E0,1.199262661E1
1.591467629E1,-2.450703735E0,-1.099134338E1,-1.152677994E1,1.611465898E1
1.592464929E1,-3.474424896E0,-1.384979919E1,-1.258043884E1,1.903039694E1
1.593462129E1,-3.339705048E0,-1.619167923E1,-1.201850739E1,2.043938908E1
1.594459429E1,-2.198478241E0,-1.665092422E1,-1.229603027E1,2.081535358E1
1.595456629E1,-8.397537231E-1,-1.463521591E1,-1.206341400E1,1.898474884E1
1.596453929E1,9.903405762E-1,-1.187839874E1,-1.029154861E1,1.574779680E1
1.597451129E1,2.162403259E0,-8.898395691E0,-7.593110046E0,1.189591333E1
1.598448429E1,2.261347504E0,-6.079457703E0,-4.949906616E0,8.159354999E0
1.599445629E1,1.580413513E0,-3.457360382E0,-3.248993683E0,5.000700714E0
1.600442929E1,8.399034119E-1,-1.314117279E0,-3.457360382E0,3.792846263E0
1.601440129E1,1.583706665E-1,-4.209246826E-1,-4.150269470E0,4.174565311E0
1.602437429E1,-4.116439819E-1,-1.568737793E-1,-3.740122375E0,3.765976040E0
1.603434629E1,-6.959028625E-1,1.526824951E-2,-1.667981415E0,1.807394786E0
1.604431929E1,6.156697083E-1,-9.711804199E-1,-5.432203674E-1,1.271742492E0
1.605429129E1,3.178190918E0,-3.790866852E0,6.026467896E-1,4.983447818E0
1.606426429E1,5.778433685E0,-8.670719147E0,2.334545288E0,1.067809759E1
1.607423629E1,7.785310364E0,-1.475526627E1,5.276677094E0,1.749777875E1
1.608420929E1,9.713301086E0,-1.937286392E1,5.561684418E0,2.237383311E1
1.609418129E1,1.000429596E1,-2.578403183E1,-4.110901337E0,2.796071789E1
1.610415429E1,5.402864685E0,-3.298031708E1,-2.320609268E1,4.068679146E1
1.611412629E1,1.051638107E1,-2.858710281E1,-1.246607666E1,3.291230447E1
1.612409929E1,9.265731812E0,-1.577509552E1,3.631298676E0,1.865191022E1
1.613407129E1,4.161795502E0,-5.742807770E0,9.184600525E0,1.160419190E1
1.614404429E1,2.911744995E0,-1.092727661E-2,3.879482574E0,4.850645665E0
1.615401629E1,1.555415497E0,1.913919983E0,-5.451663208E-1,2.525789656E0
1.616398929E1,-1.348695374E-1,-6.872209167E-1,-1.299447784E0,1.476152744E0
1.617396129E1,-4.712200928E-1,-5.801336060E0,1.466051331E0,6.002237496E0
1.618393429E1,-3.143463135E-1,-1.015428406E1,3.783981171E0,1.084097836E1
1.619390629E1,3.188369751E-1,-1.296992889E1,4.348157959E0,1.368309870E1
1.620387892E1,1.228944397E-1,-1.518412445E1,3.331023102E0,1.554568922E1
1.621385092E1,-9.713301086E-1,-1.695359482E1,1.646276550E0,1.706101069E1
1.622382392E1,-9.351054382E-1,-1.518247787E1,3.688330078E-1,1.521571866E1
1.623379592E1,2.673440552E-1,-1.160057648E1,-1.374142456E-1,1.160447026E1
1.624376892E1,1.649420013E0,-8.934770050E0,-7.831713867E-1,9.119433077E0
1.625374092E1,2.752476196E0,-7.407196655E0,-2.171234894E0,8.194934317E0
1.626371392E1,3.657494202E0,-7.329208832E0,-2.077829132E0,8.450558552E0
1.627368592E1,3.650159454E0,-7.877518616E0,-9.868977356E-1,8.738016407E0
1.628365892E1,3.458408203E0,-8.490194550E0,-3.227288818E-1,9.173229787E0
1.629363092E1,3.478616180E0,-8.998238068E0,2.273771667E-1,9.649909804E0
1.630360392E1,2.838098145E0,-9.149872742E0,-5.176235962E-1,9.593899439E0
1.631357592E1,1.569186859E0,-9.236392822E0,-1.526076508E0,9.492218354E0
1.632354892E1,4.067042542E-1,-9.474248199E0,-1.036744080E0,9.539477217E0
1.633352092E1,2.381547546E-1,-9.664053497E0,-3.553610229E-1,9.673516896E0
1.634349392E1,-5.074447632E-2,-9.352850647E0,-3.019221497E-1,9.357860183E0
1.635346592E1,-6.731501770E-1,-8.986113281E0,2.430944824E-1,9.014569207E0
1.636343892E1,-7.277865601E-1,-8.774752808E0,-5.456153870E-1,8.821771719E0
1.637341092E1,-4.276606750E-1,-8.767418060E0,-1.105600891E0,8.847195399E0
1.638338392E1,-1.736389160E-2,-8.461005249E0,-6.881190491E-1,8.488958661E0
1.639335592E1,3.778143311E-1,-7.971223755E0,-7.400610352E-1,8.014414648E0
1.640332892E1,5.490582275E-1,-7.673043823E0,-7.641609192E-1,7.730524456E0
1.641330092E1,2.878514099E-1,-8.052654419E0,-5.400769043E-1,8.075876713E0
